timestamp,android_nano_timestamp,temperature,calib_mag,calib_accel,calib_gyro,calib_sys,acc_x,acc_y,acc_z,lacc_x,lacc_y,lacc_z,gyro_x,gyro_y,gyro_z,quat_w,quat_x,quat_y,quat_z,mag_x,mag_y,mag_z,gravity_x,gravity_y,gravity_z
352620,453526619441929,28,3,3,3,2,796,-372,219,-100,-35,12,107,16,105,5393,7203,-7349,11552,-302,92,-200,897,-336,206
352630,453526619441929,28,3,3,3,2,797,-375,220,-99,-37,12,84,27,123,5383,7199,-7347,11560,-302,92,-200,897,-337,207
352640,453526623376513,28,3,3,3,2,803,-366,214,-92,-27,5,55,27,123,5374,7194,-7348,11567,-302,92,-200,896,-338,208
352650,453526623376513,28,3,3,3,2,812,-361,203,-83,-21,-5,36,33,121,5367,7188,-7349,11574,-302,92,-200,896,-339,208
352660,453526626266409,28,3,3,3,2,831,-362,194,-63,-21,-14,13,43,118,5360,7181,-7352,11580,-302,92,-200,895,-340,208
352670,453526626266409,28,3,3,3,2,841,-369,198,-53,-27,-10,-11,65,111,5377,7159,-7368,11575,-315,99,-187,894,-341,209
352680,453526631651618,28,3,3,3,2,865,-381,190,-28,-38,-19,-37,89,103,5376,7148,-7371,11580,-315,99,-187,894,-342,210
352690,453526631651618,28,3,3,3,2,932,-399,170,39,-55,-40,-72,112,86,5378,7135,-7376,11584,-315,99,-187,893,-343,211
352700,453526634286618,28,3,3,3,2,970,-392,191,77,-48,-20,-116,139,56,5384,7121,-7381,11587,-315,99,-187,893,-344,212
352710,453526634286618,28,3,3,3,2,997,-386,226,104,-40,13,-154,147,12,5395,7106,-7387,11587,-315,99,-187,892,-345,212
352720,453526643077452,28,3,3,3,2,1005,-387,262,112,-42,48,-166,148,-27,5435,7077,-7408,11573,-315,105,-193,892,-345,213
352730,453526643077452,28,3,3,3,2,1021,-413,230,128,-68,16,-141,140,-52,5450,7066,-7411,11571,-315,105,-193,892,-345,214
352740,453526675121883,28,3,3,3,2,1028,-427,211,135,-82,-4,-107,157,-67,5465,7055,-7410,11571,-315,105,-193,892,-344,215
352750,453526675121883,28,3,3,3,2,1019,-432,213,127,-88,-4,-83,174,-82,5480,7045,-7407,11572,-315,105,-193,892,-344,217
352760,453526688528446,28,3,3,3,2,995,-425,227,102,-81,9,-53,188,-90,5495,7035,-7401,11574,-315,105,-193,892,-343,218
352770,453526688528446,28,3,3,3,2,934,-394,218,42,-51,-2,-9,183,-85,5537,7009,-7410,11565,-297,99,-206,892,-342,220
352780,453526703341677,28,3,3,3,2,903,-377,210,11,-36,-12,27,203,-65,5548,6999,-7400,11572,-297,99,-206,891,-341,222
352790,453526703341677,28,3,3,3,2,870,-357,203,-20,-16,-21,42,209,-43,5557,6989,-7389,11580,-297,99,-206,891,-341,224
352800,453526732596888,28,3,3,3,2,841,-339,199,-49,1,-27,36,202,-21,5566,6978,-7380,11589,-297,99,-206,890,-341,226
352810,453526732596888,28,3,3,3,2,795,-302,183,-95,38,-45,26,193,-1,5572,6967,-7372,11597,-297,99,-206,890,-341,228
352820,453526747955067,28,3,3,3,2,783,-286,179,-106,55,-51,4,178,7,5603,6941,-7381,11593,-291,99,-187,890,-341,230
352830,453526747955067,28,3,3,3,2,778,-273,178,-110,68,-53,-31,157,13,5609,6929,-7379,11598,-291,99,-187,889,-341,232
352840,453526763019652,28,3,3,3,2,778,-266,182,-111,74,-50,-75,134,15,5617,6918,-7380,11600,-291,99,-187,889,-341,233
352850,453526763019652,28,3,3,3,2,794,-268,186,-94,73,-46,-122,106,10,5625,6907,-7385,11600,-291,99,-187,888,-342,233
352860,453526793517155,28,3,3,3,2,808,-278,188,-80,63,-45,-164,80,6,5634,6897,-7393,11596,-291,99,-187,888,-342,233
352870,453526793517155,28,3,3,3,2,824,-293,191,-63,49,-42,-198,56,5,5666,6873,-7417,11580,-308,105,-193,888,-342,233
352880,453526808597312,28,3,3,3,2,864,-327,193,-23,16,-39,-222,44,3,5676,6863,-7429,11572,-308,105,-193,888,-343,233
352890,453526808597312,28,3,3,3,2,882,-344,201,-5,0,-31,-231,33,-3,5686,6854,-7443,11564,-308,105,-193,888,-344,232
352900,453526823160856,28,3,3,3,2,897,-360,207,9,-15,-24,-223,30,-14,5697,6846,-7455,11556,-308,105,-193,888,-344,232
352910,453526823160856,28,3,3,3,2,910,-375,212,22,-30,-19,-205,33,-24,5707,6838,-7466,11548,-308,105,-193,888,-344,231
352920,453526854823359,28,3,3,3,2,914,-388,217,26,-43,-13,-177,33,-34,5731,6824,-7483,11534,-308,92,-211,888,-344,231
352930,453526854823359,28,3,3,3,2,909,-383,215,21,-38,-15,-147,36,-42,5740,6818,-7490,11528,-308,92,-211,888,-344,231
352940,453526869992058,28,3,3,3,2,905,-380,217,17,-35,-13,-123,49,-42,5749,6813,-7494,11524,-308,92,-211,888,-344,231
352950,453526869992058,28,3,3,3,2,899,-374,219,10,-29,-11,-104,62,-39,5758,6808,-7498,11520,-308,92,-211,888,-344,231
352960,453526885756487,28,3,3,3,2,891,-361,227,2,-16,-4,-88,75,-30,5766,6801,-7500,11519,-308,92,-211,888,-344,231
352970,453526885756487,28,3,3,3,2,885,-357,225,-2,-12,-7,-72,84,-23,5790,6784,-7512,11510,-308,99,-211,888,-344,232
352980,453526917786803,28,3,3,3,2,882,-352,227,-5,-7,-5,-55,87,-16,5796,6777,-7512,11510,-308,99,-211,888,-344,232
352990,453526917786803,28,3,3,3,2,877,-348,225,-10,-3,-7,-41,93,-10,5802,6770,-7512,11511,-308,99,-211,887,-344,233
353000,453526931230450,28,3,3,3,2,875,-338,227,-12,6,-6,-31,103,-12,5808,6763,-7510,11513,-308,99,-211,887,-344,234
353010,453526931230450,28,3,3,3,2,874,-331,226,-12,13,-8,-29,104,-21,5814,6757,-7508,11515,-308,99,-211,887,-344,235
353020,453526945488837,28,3,3,3,2,872,-325,227,-14,19,-8,-30,103,-27,5841,6738,-7517,11507,-302,99,-217,887,-344,236
353030,453526945488837,28,3,3,3,2,870,-322,223,-16,21,-13,-39,99,-32,5849,6731,-7515,11508,-302,99,-217,887,-344,236
353040,453526973613371,28,3,3,3,2,871,-326,221,-15,17,-16,-46,100,-34,5856,6725,-7514,11509,-302,99,-217,887,-344,237
353050,453526973613371,28,3,3,3,2,870,-332,224,-16,11,-14,-52,99,-35,5865,6718,-7513,11509,-302,99,-217,886,-343,238
353060,453526988895612,28,3,3,3,2,870,-335,227,-16,7,-11,-59,98,-36,5873,6712,-7512,11509,-302,99,-217,886,-343,239
353070,453526988895612,28,3,3,3,2,874,-340,233,-12,3,-6,-72,99,-34,5907,6689,-7527,11496,-302,110,-206,886,-343,239
353080,453527004867436,28,3,3,3,2,876,-339,230,-9,4,-9,-83,102,-30,5916,6681,-7528,11495,-302,110,-206,886,-343,240
353090,453527004867436,28,3,3,3,2,881,-339,232,-4,4,-8,-93,105,-25,5925,6672,-7530,11494,-302,110,-206,886,-343,241
353100,453527035817804,28,3,3,3,2,885,-339,244,0,3,2,-110,111,-24,5936,6663,-7532,11493,-302,110,-206,886,-343,241
353110,453527035817804,28,3,3,3,2,885,-345,257,0,-2,14,-127,106,-22,5946,6653,-7536,11491,-302,110,-206,885,-343,242
353120,453527049724784,28,3,3,3,2,883,-349,249,-1,-5,6,-132,97,-20,5975,6631,-7551,11478,-297,99,-217,885,-343,242
353130,453527049724784,28,3,3,3,2,884,-348,233,-1,-4,-9,-123,91,-8,5983,6621,-7556,11477,-297,99,-217,885,-344,243
353140,453527064075723,28,3,3,3,2,880,-345,232,-4,-1,-11,-115,95,3,5991,6612,-7560,11475,-297,99,-217,885,-344,243
353150,453527064075723,28,3,3,3,2,869,-359,251,-15,-14,7,-132,106,16,5999,6600,-7565,11474,-297,99,-217,884,-344,244
353160,453527095075466,28,3,3,3,2,868,-365,243,-15,-20,-1,-151,106,26,6007,6587,-7573,11473,-297,99,-217,884,-345,244
353170,453527095075466,28,3,3,3,2,870,-362,225,-13,-16,-19,-145,98,33,6034,6560,-7593,11460,-286,99,-217,884,-346,245
353180,453527110668280,28,3,3,3,2,871,-356,240,-11,-9,-5,-127,95,42,6040,6548,-7600,11460,-286,99,-217,883,-347,245
353190,453527110668280,28,3,3,3,2,871,-364,248,-11,-15,2,-122,86,44,6044,6536,-7606,11460,-286,99,-217,883,-348,245
353200,453527124120729,28,3,3,3,2,867,-368,250,-15,-19,4,-125,66,45,6048,6525,-7614,11459,-286,99,-217,882,-349,245
353210,453527124120729,28,3,3,3,2,864,-366,249,-17,-17,3,-124,51,41,6052,6516,-7622,11457,-286,99,-217,882,-349,245
353220,453527154267607,28,3,3,3,3,863,-365,249,-18,-14,3,-121,42,33,6056,6507,-7630,11455,-297,88,-206,882,-350,245
353230,453527154267607,28,3,3,3,3,867,-366,247,-14,-15,1,-113,39,32,6059,6499,-7637,11453,-297,88,-206,881,-351,245
353240,453527170221463,28,3,3,3,3,872,-367,241,-9,-15,-4,-102,31,33,6061,6491,-7644,11451,-297,88,-206,881,-352,245
353250,453527170221463,28,3,3,3,3,869,-369,248,-12,-16,2,-98,22,33,6063,6485,-7651,11449,-297,88,-206,881,-352,245
353260,453527186453079,28,3,3,3,3,870,-363,268,-11,-10,23,-104,6,28,6065,6479,-7659,11446,-297,88,-206,881,-353,245
353270,453527186453079,28,3,3,3,3,867,-361,268,-13,-7,23,-119,-11,16,6086,6461,-7678,11432,-302,110,-217,881,-353,244
353280,453527215397457,28,3,3,3,3,865,-358,263,-15,-4,19,-122,-22,9,6089,6457,-7686,11428,-302,110,-217,881,-354,244
353290,453527215397457,28,3,3,3,3,867,-361,259,-13,-6,16,-117,-27,0,6092,6454,-7694,11423,-302,110,-217,881,-354,243
353300,453527231889855,28,3,3,3,3,872,-365,251,-8,-9,8,-109,-22,-2,6095,6450,-7701,11418,-302,110,-217,881,-355,243
353310,453527231889855,28,3,3,3,3,875,-367,249,-5,-11,7,-100,-19,-2,6097,6448,-7708,11414,-302,110,-217,881,-355,242
353320,453527245454908,28,3,3,3,3,879,-368,244,-1,-12,2,-92,-13,0,6126,6427,-7730,11395,-291,116,-217,881,-355,242
353330,453527245454908,28,3,3,3,3,879,-368,242,-1,-12,0,-84,0,0,6129,6424,-7735,11392,-291,116,-217,881,-356,242
353340,453527275650536,28,3,3,3,3,873,-367,236,-7,-11,-5,-72,9,-2,6132,6420,-7739,11389,-291,116,-217,881,-356,241
353350,453527275650536,28,3,3,3,3,870,-359,239,-10,-2,-2,-65,14,-5,6135,6417,-7743,11387,-291,116,-217,880,-356,241
353360,453527289883402,28,3,3,3,3,867,-352,244,-13,4,3,-70,18,-11,6139,6414,-7746,11385,-291,116,-217,880,-356,241
353370,453527289883402,28,3,3,3,3,876,-352,245,-4,4,4,-82,17,-21,6144,6410,-7751,11381,-308,99,-217,880,-356,241
353380,453527305846633,28,3,3,3,3,876,-354,243,-4,2,2,-92,19,-21,6150,6407,-7755,11377,-308,99,-217,881,-356,241
353390,453527305846633,28,3,3,3,3,883,-358,241,2,-1,0,-94,24,-18,6155,6403,-7759,11373,-308,99,-217,881,-356,241
353400,453527334815854,28,3,3,3,3,883,-369,242,2,-12,1,-89,31,-10,6160,6398,-7764,11370,-308,99,-217,880,-356,241
353410,453527334815854,28,3,3,3,3,879,-382,243,-1,-25,2,-75,42,-1,6165,6393,-7767,11368,-308,99,-217,880,-357,241
353420,453527349900283,28,3,3,3,3,872,-383,246,-7,-26,4,-56,55,3,6173,6383,-7772,11365,-308,105,-211,880,-357,241
353430,453527349900283,28,3,3,3,3,872,-379,248,-7,-22,5,-39,68,17,6176,6376,-7773,11367,-308,105,-211,880,-357,242
353440,453527367612108,28,3,3,3,3,866,-374,256,-13,-15,13,-26,64,22,6178,6370,-7774,11370,-308,105,-211,880,-358,242
353450,453527367612108,28,3,3,3,3,860,-369,248,-18,-10,5,-25,56,27,6179,6363,-7775,11372,-308,105,-211,879,-358,243
353460,453527397130913,28,3,3,3,3,862,-369,239,-16,-10,-4,-38,48,36,6180,6357,-7777,11373,-308,105,-211,879,-359,243
353470,453527397130913,28,3,3,3,3,865,-369,236,-13,-10,-7,-43,42,42,6188,6345,-7784,11371,-302,105,-211,879,-359,243
353480,453527409804977,28,3,3,3,3,870,-371,235,-8,-11,-8,-49,34,47,6187,6339,-7788,11371,-302,105,-211,878,-360,243
353490,453527409804977,28,3,3,3,3,869,-385,234,-8,-23,-9,-45,22,53,6186,6333,-7793,11372,-302,105,-211,878,-361,243
353500,453527425424978,28,3,3,3,3,864,-392,241,-13,-30,-2,-40,14,54,6183,6328,-7798,11373,-302,105,-211,878,-362,243
353510,453527425424978,28,3,3,3,3,857,-398,244,-20,-35,0,-36,11,56,6180,6322,-7803,11375,-302,105,-211,877,-363,243
353520,453527455046700,28,3,3,3,3,848,-397,244,-29,-33,0,-31,7,61,6190,6307,-7817,11369,-302,116,-198,877,-364,243
353530,453527455046700,28,3,3,3,3,843,-385,241,-33,-20,-2,-28,2,69,6185,6301,-7822,11371,-302,116,-198,876,-365,243
353540,453527470352795,28,3,3,3,3,843,-375,238,-33,-9,-4,-29,-3,72,6180,6296,-7827,11373,-302,116,-198,876,-366,243
353550,453527470352795,28,3,3,3,3,843,-369,236,-33,-2,-7,-35,-18,77,6175,6292,-7833,11374,-302,116,-198,876,-367,243
353560,453527485025140,28,3,3,3,3,846,-365,231,-29,2,-10,-37,-32,82,6170,6288,-7840,11374,-302,116,-198,875,-368,242
353570,453527485025140,28,3,3,3,3,847,-371,226,-28,-2,-15,-38,-49,83,6175,6278,-7854,11367,-302,116,-198,875,-368,242
353580,453527514551029,28,3,3,3,3,850,-374,230,-24,-4,-10,-35,-61,83,6168,6277,-7861,11366,-302,116,-198,875,-369,241
353590,453527514551029,28,3,3,3,3,851,-376,233,-23,-5,-7,-29,-69,80,6161,6277,-7868,11365,-302,116,-198,875,-370,240
353600,453527530971499,28,3,3,3,3,859,-380,233,-16,-9,-6,-20,-72,73,6154,6277,-7875,11365,-302,116,-198,875,-371,239
353610,453527530971499,28,3,3,3,3,860,-382,231,-14,-10,-7,-11,-79,70,6146,6278,-7881,11364,-302,116,-198,875,-372,238
353620,453527544610615,28,3,3,3,3,864,-383,233,-10,-10,-5,0,-69,65,6155,6268,-7895,11355,-291,116,-211,875,-373,238
353630,453527544610615,28,3,3,3,3,868,-381,232,-6,-7,-4,8,-55,61,6148,6268,-7899,11355,-291,116,-211,874,-373,237
353640,453527574659837,28,3,3,3,3,871,-377,223,-3,-2,-13,16,-42,57,6142,6269,-7902,11356,-291,116,-211,874,-374,237
353650,453527574659837,28,3,3,3,3,864,-374,226,-10,0,-10,25,-31,51,6137,6269,-7904,11358,-291,116,-211,874,-374,237
353660,453527589691453,28,3,3,3,3,858,-371,230,-15,3,-6,33,-24,39,6132,6270,-7904,11360,-291,116,-211,874,-375,236
353670,453527589691453,28,3,3,3,3,849,-366,233,-25,8,-3,39,-23,29,6123,6275,-7901,11364,-321,105,-217,874,-375,236
353680,453527605067496,28,3,3,3,3,849,-370,231,-25,4,-5,39,-27,16,6120,6277,-7900,11365,-321,105,-217,874,-375,236
353690,453527605067496,28,3,3,3,3,852,-371,226,-22,4,-9,38,-34,5,6117,6280,-7899,11366,-321,105,-217,874,-375,236
353700,453527651079844,28,3,3,3,3,853,-374,234,-21,1,-2,32,-41,-4,6114,6284,-7898,11366,-321,105,-217,874,-375,236
353710,453527651079844,28,3,3,3,3,859,-385,245,-15,-10,9,23,-46,-11,6112,6288,-7898,11365,-321,105,-217,874,-375,236
353720,453527657945314,28,3,3,3,3,868,-393,238,-6,-18,2,23,-45,-22,6110,6292,-7898,11364,-308,110,-193,874,-374,235
353730,453527657945314,28,3,3,3,3,878,-398,232,3,-23,-3,25,-33,-29,6109,6295,-7897,11363,-308,110,-193,875,-374,235
353740,453527664607971,28,3,3,3,3,884,-401,234,9,-27,-1,33,-26,-30,6108,6299,-7895,11363,-308,110,-193,875,-374,235
353750,453527664607971,28,3,3,3,3,888,-406,248,13,-32,13,45,-18,-33,6108,6303,-7892,11363,-308,110,-193,875,-373,235
353760,453527695544640,28,3,3,3,3,883,-407,253,8,-34,18,56,-15,-33,6107,6307,-7888,11364,-308,110,-193,875,-373,235
353770,453527695544640,28,3,3,3,3,879,-408,251,3,-35,15,66,-10,-28,6108,6309,-7884,11364,-302,110,-206,875,-373,235
353780,453527709702558,28,3,3,3,3,874,-409,249,-1,-36,13,81,0,-18,6106,6311,-7880,11368,-302,110,-206,875,-372,236
353790,453527709702558,28,3,3,3,3,869,-404,246,-5,-31,9,97,14,-7,6102,6312,-7874,11374,-302,110,-206,875,-372,236
353800,453527724450529,28,3,3,3,3,870,-399,243,-4,-26,5,106,26,0,6098,6312,-7867,11380,-302,110,-206,875,-372,237
353810,453527724450529,28,3,3,3,3,871,-394,246,-4,-21,7,110,29,1,6095,6313,-7860,11387,-302,110,-206,875,-372,238
353820,453527756298917,28,3,3,3,3,870,-388,249,-4,-15,10,111,31,2,6107,6303,-7861,11385,-302,121,-206,875,-372,238
353830,453527756298917,28,3,3,3,3,857,-377,248,-17,-5,9,109,32,6,6104,6304,-7853,11391,-302,121,-206,874,-372,239
353840,453527770894179,28,3,3,3,3,852,-374,244,-21,-2,3,107,40,10,6101,6304,-7845,11398,-302,121,-206,874,-372,240
353850,453527770894179,28,3,3,3,3,849,-371,240,-24,0,-1,100,44,20,6098,6303,-7839,11405,-302,121,-206,874,-372,241
353860,453527784912878,28,3,3,3,3,842,-368,237,-31,3,-5,94,49,27,6095,6302,-7832,11412,-302,121,-206,874,-372,242
353870,453527784912878,28,3,3,3,3,845,-363,237,-28,9,-6,86,42,28,6110,6288,-7836,11408,-297,121,-211,874,-372,243
353880,453527814686579,28,3,3,3,3,843,-360,238,-30,12,-5,73,34,24,6108,6287,-7831,11414,-297,121,-211,873,-372,243
353890,453527814686579,28,3,3,3,3,844,-359,236,-29,13,-7,55,24,18,6106,6287,-7828,11417,-297,121,-211,873,-372,244
353900,453527845331062,28,3,3,3,3,853,-358,238,-19,14,-5,38,6,13,6103,6288,-7826,11420,-297,121,-211,873,-372,244
353910,453527845331062,28,3,3,3,3,857,-363,240,-15,9,-3,23,-12,10,6101,6289,-7825,11420,-297,121,-211,873,-372,244
353920,453527851989708,28,3,3,3,3,859,-371,242,-14,1,-1,15,-19,10,6098,6291,-7824,11422,-297,99,-200,873,-372,244
353930,453527851989708,28,3,3,3,3,859,-381,243,-14,-8,0,8,-16,10,6096,6291,-7825,11422,-297,99,-200,873,-372,244
353940,453527874661690,28,3,3,3,3,866,-388,246,-7,-15,2,8,-16,14,6094,6292,-7827,11422,-297,99,-200,873,-373,243
353950,453527874661690,28,3,3,3,3,868,-390,247,-5,-17,3,13,-11,19,6092,6292,-7827,11423,-297,99,-200,873,-373,243
353960,453527889775806,28,3,3,3,3,873,-388,246,0,-15,2,19,-9,23,6089,6291,-7827,11424,-297,99,-200,873,-373,243
353970,453527889775806,28,3,3,3,3,878,-387,241,4,-13,-2,31,-16,23,6094,6286,-7832,11421,-286,105,-211,873,-373,243
353980,453527903981849,28,3,3,3,3,869,-387,252,-4,-13,8,30,-10,17,6091,6287,-7831,11423,-286,105,-211,873,-373,243
353990,453527903981849,28,3,3,3,3,866,-387,242,-6,-13,-1,21,-3,11,6090,6287,-7830,11424,-286,105,-211,873,-373,243
354000,453527934833623,28,3,3,3,3,866,-380,224,-6,-6,-19,29,-11,7,6088,6288,-7829,11425,-286,105,-211,873,-373,243
354010,453527934833623,28,3,3,3,3,860,-374,229,-12,0,-14,45,-8,9,6085,6289,-7827,11428,-286,105,-211,873,-373,244
354020,453527949677218,28,3,3,3,3,859,-375,236,-13,-1,-8,47,-8,12,6096,6281,-7832,11423,-302,121,-200,873,-373,244
354030,453527949677218,28,3,3,3,3,858,-377,236,-14,-3,-7,36,-19,10,6093,6283,-7831,11424,-302,121,-200,873,-373,244
354040,453527964389198,28,3,3,3,3,857,-375,232,-15,-1,-11,30,-29,4,6090,6285,-7831,11424,-302,121,-200,873,-373,243
354050,453527964389198,28,3,3,3,3,856,-374,243,-16,0,0,27,-33,1,6088,6288,-7830,11424,-302,121,-200,873,-373,243
354060,453527993985816,28,3,3,3,3,854,-375,245,-19,-1,1,29,-42,0,6085,6292,-7830,11424,-302,121,-200,873,-373,243
354070,453527993985816,28,3,3,3,3,854,-377,231,-18,-3,-11,40,-52,1,6085,6293,-7832,11422,-297,110,-200,873,-373,243
354080,453528009714203,28,3,3,3,3,853,-376,229,-20,-2,-13,48,-64,2,6081,6299,-7831,11422,-297,110,-200,873,-373,242
354090,453528009714203,28,3,3,3,3,858,-379,225,-15,-6,-16,43,-75,7,6076,6305,-7831,11421,-297,110,-200,873,-373,242
354100,453528025455038,28,3,3,3,3,857,-381,228,-16,-8,-12,35,-85,9,6070,6310,-7833,11420,-297,110,-200,873,-373,241
354110,453528025455038,28,3,3,3,3,856,-384,230,-17,-10,-10,32,-93,13,6063,6316,-7835,11419,-297,110,-200,874,-373,240
354120,453528055304780,28,3,3,3,3,857,-383,227,-17,-9,-11,33,-93,20,6053,6324,-7836,11419,-302,99,-206,874,-374,239
354130,453528055304780,28,3,3,3,3,861,-382,223,-12,-8,-15,35,-85,25,6046,6329,-7838,11418,-302,99,-206,874,-374,239
354140,453528069917230,28,3,3,3,3,866,-383,219,-7,-8,-19,35,-83,28,6039,6334,-7841,11418,-302,99,-206,874,-374,238
354150,453528069917230,28,3,3,3,3,871,-382,221,-3,-7,-16,37,-69,25,6033,6339,-7842,11417,-302,99,-206,874,-374,237
354160,453528084711710,28,3,3,3,3,876,-380,220,2,-5,-16,37,-62,25,6027,6343,-7844,11417,-302,99,-206,874,-375,237
354170,453528084711710,28,3,3,3,3,876,-381,218,1,-6,-17,36,-55,20,6028,6342,-7848,11414,-291,105,-211,874,-375,236
354180,453528115081974,28,3,3,3,3,876,-380,218,2,-5,-17,35,-49,15,6023,6346,-7849,11414,-291,105,-211,874,-375,236
354190,453528115081974,28,3,3,3,3,876,-380,217,2,-5,-18,31,-45,11,6019,6350,-7849,11414,-291,105,-211,874,-375,235
354200,453528130511611,28,3,3,3,3,871,-377,220,-3,-1,-14,24,-39,7,6016,6353,-7849,11413,-291,105,-211,874,-375,235
354210,453528130511611,28,3,3,3,3,867,-378,223,-7,-3,-12,14,-36,6,6014,6356,-7850,11413,-291,105,-211,874,-375,235
354220,453528144599060,28,3,3,3,3,864,-382,226,-10,-7,-8,10,-33,6,6021,6352,-7856,11407,-297,110,-211,875,-375,234
354230,453528144599060,28,3,3,3,3,862,-384,226,-12,-8,-8,3,-29,4,6019,6354,-7857,11406,-297,110,-211,875,-375,234
354240,453528174515521,28,3,3,3,3,862,-383,230,-12,-7,-4,3,-26,2,6018,6355,-7859,11405,-297,110,-211,875,-375,234
354250,453528174515521,28,3,3,3,3,863,-385,230,-11,-9,-3,0,-28,0,6016,6357,-7860,11404,-297,110,-211,875,-375,234
354260,453528190943179,28,3,3,3,3,865,-382,225,-9,-7,-7,0,-35,0,6014,6359,-7861,11403,-297,110,-211,875,-375,233
354270,453528190943179,28,3,3,3,3,865,-379,244,-10,-4,10,2,-40,-1,6012,6361,-7863,11402,-308,110,-193,875,-375,233
354280,453528205801150,28,3,3,3,3,859,-386,245,-16,-10,12,0,-42,1,6010,6363,-7864,11401,-308,110,-193,875,-375,232
354290,453528205801150,28,3,3,3,3,860,-388,235,-14,-13,3,-6,-51,4,6008,6366,-7866,11399,-308,110,-193,875,-375,232
354300,453528235658705,28,3,3,3,3,863,-390,235,-12,-15,3,-4,-42,7,6006,6368,-7868,11398,-308,110,-193,875,-375,232
354310,453528235658705,28,3,3,3,3,869,-387,247,-6,-11,15,-4,-46,13,6002,6369,-7870,11397,-308,110,-193,875,-376,231
354320,453528265274906,28,3,3,3,3,868,-382,250,-6,-6,19,0,-47,10,6008,6365,-7877,11392,-297,110,-206,875,-376,231
354330,453528265274906,28,3,3,3,3,870,-381,250,-5,-5,19,4,-50,6,6006,6367,-7878,11391,-297,110,-206,875,-376,230
354340,453528270524281,28,3,3,3,3,868,-382,248,-7,-5,18,1,-56,3,6003,6370,-7879,11390,-297,110,-206,875,-376,230
354350,453528270524281,28,3,3,3,3,868,-382,244,-7,-5,14,-4,-57,-1,6001,6372,-7881,11389,-297,110,-206,875,-376,230
354360,453528309761472,28,3,3,3,3,868,-383,239,-7,-6,9,-10,-56,-3,5999,6375,-7883,11387,-297,110,-206,875,-376,229
354370,453528309761472,28,3,3,3,3,868,-384,237,-7,-7,8,-16,-54,-6,5997,6377,-7886,11385,-302,105,-193,876,-376,229
354380,453528316857879,28,3,3,3,3,870,-384,235,-5,-7,6,-21,-40,-5,5995,6378,-7889,11383,-302,105,-193,876,-376,228
354390,453528316857879,28,3,3,3,3,877,-392,227,1,-16,0,-23,-24,-3,5995,6379,-7891,11381,-302,105,-193,876,-376,228
354400,453528324397151,28,3,3,3,3,877,-390,226,1,-14,-1,-18,-7,0,5995,6378,-7892,11381,-302,105,-193,876,-376,228
354410,453528324397151,28,3,3,3,3,879,-390,227,3,-13,0,-15,14,-1,5996,6376,-7893,11381,-302,105,-193,876,-376,228
354420,453528353328925,28,3,3,3,3,879,-388,225,3,-11,-2,-14,21,-4,5998,6374,-7894,11381,-302,105,-200,875,-377,228
354430,453528353328925,28,3,3,3,3,870,-380,225,-5,-3,-3,-14,31,-8,5999,6372,-7894,11381,-302,105,-200,875,-377,228
354440,453528369121583,28,3,3,3,3,867,-378,222,-8,-1,-6,-17,39,-12,6002,6369,-7893,11381,-302,105,-200,875,-377,229
354450,453528369121583,28,3,3,3,3,862,-376,219,-13,0,-9,-22,42,-17,6006,6366,-7893,11381,-302,105,-200,875,-376,229
354460,453528401459763,28,3,3,3,3,861,-378,221,-14,-2,-8,-24,44,-18,6010,6363,-7893,11381,-302,105,-200,875,-376,229
354470,453528401459763,28,3,3,3,3,861,-376,219,-13,0,-10,-28,49,-19,6032,6348,-7902,11372,-297,121,-206,875,-376,229
354480,453528413581899,28,3,3,3,3,864,-377,220,-10,0,-10,-28,51,-9,6035,6344,-7902,11372,-297,121,-206,875,-376,230
354490,453528413581899,28,3,3,3,3,868,-388,220,-7,-12,-10,-21,54,2,6038,6340,-7902,11373,-297,121,-206,875,-376,230
354500,453528430181797,28,3,3,3,3,871,-401,219,-4,-24,-11,-23,44,8,6040,6336,-7903,11373,-297,121,-206,875,-377,231
354510,453528430181797,28,3,3,3,3,866,-402,221,-8,-25,-10,-20,42,8,6042,6332,-7904,11374,-297,121,-206,875,-377,231
354520,453528447299455,28,3,3,3,3,861,-396,226,-13,-19,-4,-16,38,6,6045,6327,-7906,11374,-297,105,-211,874,-377,231
354530,453528447299455,28,3,3,3,3,858,-390,228,-16,-13,-3,-15,36,6,6046,6323,-7907,11374,-297,105,-211,874,-377,231
354540,453528474727947,28,3,3,3,3,856,-381,224,-18,-3,-7,-17,40,3,6048,6320,-7907,11375,-297,105,-211,874,-377,232
354550,453528474727947,28,3,3,3,3,856,-381,223,-17,-3,-8,-20,31,6,6050,6317,-7908,11375,-297,105,-211,874,-378,232
354560,453528505158992,28,3,3,3,3,857,-383,225,-16,-4,-7,-21,23,12,6050,6314,-7909,11376,-297,105,-211,874,-378,232
354570,453528505158992,28,3,3,3,3,855,-385,223,-18,-6,-8,-20,31,15,6061,6304,-7916,11371,-291,110,-206,874,-378,232
354580,453528511550920,28,3,3,3,3,857,-393,223,-16,-14,-8,-25,19,20,6060,6301,-7918,11372,-291,110,-206,874,-378,232
354590,453528511550920,28,3,3,3,3,858,-395,224,-15,-16,-8,-19,13,24,6059,6298,-7920,11372,-291,110,-206,873,-379,232
354600,453528535835245,28,3,3,3,3,859,-393,226,-14,-14,-5,-19,14,28,6058,6294,-7923,11373,-291,110,-206,873,-379,232
354610,453528535835245,28,3,3,3,3,860,-392,229,-12,-12,-2,-19,18,23,6058,6291,-7925,11374,-291,110,-206,873,-380,232
354620,453528550709986,28,3,3,3,3,861,-385,226,-11,-4,-6,-20,11,16,6076,6276,-7936,11364,-286,121,-193,873,-380,232
354630,453528550709986,28,3,3,3,3,860,-380,228,-13,0,-4,-19,4,13,6075,6274,-7938,11364,-286,121,-193,873,-380,232
354640,453528564177383,28,3,3,3,3,860,-378,228,-13,2,-4,-18,3,7,6076,6274,-7940,11363,-286,121,-193,873,-380,232
354650,453528564177383,28,3,3,3,3,861,-380,232,-11,0,0,-22,-1,5,6076,6273,-7941,11362,-286,121,-193,873,-380,232
354660,453528594939938,28,3,3,3,3,860,-383,232,-12,-2,0,-27,0,4,6077,6272,-7943,11361,-286,121,-193,873,-380,232
354670,453528594939938,28,3,3,3,3,859,-385,234,-14,-4,1,-21,0,4,6089,6263,-7951,11354,-308,121,-217,873,-380,232
354680,453528612072805,28,3,3,3,3,862,-387,233,-10,-6,1,-17,3,4,6090,6262,-7952,11354,-308,121,-217,873,-381,232
354690,453528612072805,28,3,3,3,3,865,-387,231,-7,-6,0,-12,10,4,6091,6261,-7952,11353,-308,121,-217,873,-381,232
354700,453528624781295,28,3,3,3,3,870,-386,239,-3,-5,7,-9,16,0,6092,6259,-7953,11354,-308,121,-217,873,-381,232
354710,453528624781295,28,3,3,3,3,870,-385,241,-3,-3,9,-8,24,-1,6093,6257,-7952,11355,-308,121,-217,873,-381,232
354720,453528654485673,28,3,3,3,3,874,-380,244,1,0,11,-14,24,-13,6099,6253,-7954,11352,-291,110,-200,873,-381,232
354730,453528654485673,28,3,3,3,3,871,-380,243,-2,0,10,-27,15,-21,6102,6252,-7954,11351,-291,110,-200,873,-380,232
354740,453528669962237,28,3,3,3,3,866,-385,236,-6,-4,3,-32,11,-27,6105,6251,-7955,11349,-291,110,-200,873,-380,232
354750,453528669962237,28,3,3,3,3,863,-384,237,-9,-3,4,-31,13,-29,6109,6250,-7955,11348,-291,110,-200,873,-380,232
354760,453528699254636,28,3,3,3,3,859,-382,238,-14,-2,5,-30,17,-29,6112,6249,-7956,11346,-291,110,-200,873,-380,232
354770,453528699254636,28,3,3,3,3,857,-383,236,-15,-2,3,-29,27,-24,6122,6243,-7959,11342,-291,110,-211,873,-380,233
354780,453528714217711,28,3,3,3,3,860,-383,243,-12,-3,9,-32,41,-21,6126,6239,-7959,11341,-291,110,-211,873,-380,233
354790,453528714217711,28,3,3,3,3,860,-385,237,-13,-4,3,-39,53,-12,6131,6235,-7959,11341,-291,110,-211,873,-380,233
354800,453528730945785,28,3,3,3,3,868,-385,229,-4,-4,-4,-37,61,-9,6135,6230,-7959,11342,-291,110,-211,873,-380,234
354810,453528730945785,28,3,3,3,3,873,-384,233,0,-3,-1,-26,61,-7,6138,6225,-7959,11343,-291,110,-211,872,-380,234
354820,453528743915474,28,3,3,3,3,875,-383,246,2,-3,11,-29,71,-6,6158,6209,-7967,11335,-286,121,-193,872,-380,235
354830,453528743915474,28,3,3,3,3,880,-387,248,7,-7,13,-55,68,-18,6164,6203,-7968,11335,-286,121,-193,872,-380,235
354840,453528775621363,28,3,3,3,3,872,-386,220,0,-6,-15,-68,67,-22,6171,6198,-7969,11333,-286,121,-193,872,-380,236
354850,453528775621363,28,3,3,3,3,869,-388,220,-2,-7,-16,-61,65,-30,6177,6193,-7970,11332,-286,121,-193,872,-380,236
354860,453528790802718,28,3,3,3,3,865,-390,225,-7,-10,-11,-44,72,-20,6183,6188,-7970,11331,-286,121,-193,872,-380,236
354870,453528790802718,28,3,3,3,3,863,-395,238,-8,-14,1,-27,78,-9,6188,6182,-7969,11333,-302,110,-200,872,-380,237
354880,453528804889074,28,3,3,3,3,850,-401,241,-21,-20,3,-33,76,4,6191,6176,-7969,11334,-302,110,-200,871,-380,238
354890,453528804889074,28,3,3,3,3,846,-395,244,-25,-14,5,-42,73,11,6195,6168,-7970,11335,-302,110,-200,871,-380,238
354900,453528836609337,28,3,3,3,3,848,-388,256,-22,-6,17,-48,68,25,6197,6160,-7972,11337,-302,110,-200,871,-381,239
354910,453528836609337,28,3,3,3,3,850,-386,254,-20,-4,15,-49,67,38,6199,6152,-7974,11339,-302,110,-200,870,-381,239
354920,453528849555537,28,3,3,3,3,858,-385,241,-12,-2,1,-51,51,45,6209,6138,-7981,11336,-280,110,-200,870,-382,239
354930,453528849555537,28,3,3,3,3,855,-392,231,-14,-9,-8,-50,27,45,6209,6133,-7985,11337,-280,110,-200,870,-383,239
354940,453528864850538,28,3,3,3,3,853,-394,228,-16,-10,-11,-50,13,41,6208,6128,-7989,11336,-280,110,-200,869,-383,239
354950,453528864850538,28,3,3,3,3,848,-398,233,-21,-14,-5,-66,0,36,6208,6124,-7995,11335,-280,110,-200,869,-384,239
354960,453528894781062,28,3,3,3,3,827,-401,237,-42,-16,-1,-82,-24,31,6207,6120,-8003,11332,-280,110,-200,869,-385,239
354970,453528894781062,28,3,3,3,3,824,-395,237,-44,-9,0,-84,-41,28,6205,6117,-8011,11328,-286,105,-211,869,-385,238
354980,453528910760074,28,3,3,3,3,822,-393,239,-47,-6,1,-76,-50,36,6203,6116,-8019,11325,-286,105,-211,869,-386,237
354990,453528910760074,28,3,3,3,3,826,-391,227,-42,-4,-8,-57,-55,51,6200,6115,-8026,11322,-286,105,-211,869,-386,236
355000,453528926526221,28,3,3,3,3,832,-397,225,-36,-9,-9,-52,-69,60,6195,6115,-8034,11320,-286,105,-211,869,-387,235
355010,453528926526221,28,3,3,3,3,843,-398,230,-25,-9,-4,-46,-73,67,6188,6114,-8042,11318,-286,105,-211,869,-388,235
355020,453528955136953,28,3,3,3,3,849,-398,233,-20,-8,0,-38,-85,63,6182,6114,-8050,11315,-302,116,-200,869,-389,234
355030,453528955136953,28,3,3,3,3,859,-388,233,-10,0,0,-27,-94,52,6175,6117,-8056,11313,-302,116,-200,869,-389,233
355040,453528970999976,28,3,3,3,3,865,-390,232,-3,0,0,-34,-94,41,6169,6120,-8063,11310,-302,116,-200,869,-390,232
355050,453528970999976,28,3,3,3,3,872,-390,234,3,0,3,-49,-88,29,6165,6122,-8070,11306,-302,116,-200,869,-390,230
355060,453529015589407,28,3,3,3,3,874,-390,233,5,0,3,-51,-81,22,6162,6124,-8077,11301,-302,116,-200,869,-391,229
355070,453529015589407,28,3,3,3,3,880,-399,232,11,-7,3,-47,-73,7,6159,6128,-8082,11298,-308,116,-193,869,-391,229
355080,453529022113575,28,3,3,3,3,875,-396,231,5,-5,3,-73,-59,-14,6160,6130,-8088,11292,-308,116,-193,869,-391,228
355090,453529022113575,28,3,3,3,3,873,-389,226,3,1,0,-90,-41,-30,6163,6131,-8094,11286,-308,116,-193,869,-391,227
355100,453529029954200,28,3,3,3,3,876,-395,225,6,-3,-1,-99,-29,-41,6167,6131,-8099,11279,-308,116,-193,870,-391,226
355110,453529029954200,28,3,3,3,3,868,-387,223,-1,3,-3,-108,-10,-44,6173,6130,-8105,11272,-308,116,-193,870,-391,226
355120,453529044622066,28,3,3,3,3,873,-388,225,2,2,0,-138,4,-45,6191,6120,-8118,11259,-286,121,-193,870,-390,225
355130,453529044622066,28,3,3,3,3,865,-408,217,-5,-17,-6,-208,17,-49,6201,6114,-8128,11249,-286,121,-193,870,-391,224
355140,453529075225142,28,3,3,3,3,863,-399,191,-7,-8,-33,-162,10,-43,6209,6109,-8137,11240,-286,121,-193,870,-391,224
355150,453529075225142,28,3,3,3,3,860,-405,198,-11,-14,-24,-146,-1,-41,6216,6106,-8146,11232,-286,121,-193,871,-391,223
355160,453529106021291,28,3,3,3,3,854,-404,206,-16,-13,-16,-170,26,-32,6224,6100,-8156,11224,-286,121,-193,871,-391,222
355170,453529106021291,28,3,3,3,3,872,-403,208,1,-11,-13,-135,42,0,6231,6091,-8164,11218,-280,110,-200,871,-391,222
355180,453529113159261,28,3,3,3,3,870,-427,192,0,-34,-29,-85,32,41,6231,6084,-8172,11216,-280,110,-200,870,-392,222
355190,453529113159261,28,3,3,3,3,876,-433,202,6,-40,-19,-60,46,77,6228,6075,-8180,11217,-280,110,-200,870,-393,222
355200,453529135220982,28,3,3,3,3,878,-441,213,9,-46,-9,-18,54,127,6224,6066,-8183,11222,-280,110,-200,869,-395,222
355210,453529135220982,28,3,3,3,3,879,-456,216,11,-59,-6,8,71,174,6216,6054,-8187,11231,-280,110,-200,868,-396,223
355220,453529149904421,28,3,3,3,3,883,-461,229,16,-62,5,18,87,228,6198,6044,-8186,11246,-302,110,-193,867,-398,224
355230,453529149904421,28,3,3,3,3,870,-452,236,4,-50,10,35,123,278,6185,6025,-8189,11261,-302,110,-193,865,-401,225
355240,453529164905933,28,3,3,3,3,874,-422,239,10,-17,12,63,159,306,6171,6004,-8190,11280,-302,110,-193,864,-404,227
355250,453529164905933,28,3,3,3,3,876,-398,225,14,8,-3,92,168,331,6155,5981,-8190,11300,-302,110,-193,862,-407,229
355260,453529195628436,28,3,3,3,3,874,-372,211,14,37,-19,105,161,334,6139,5960,-8189,11322,-302,110,-193,860,-410,231
355270,453529195628436,28,3,3,3,3,864,-365,211,5,47,-21,108,126,304,6121,5943,-8187,11341,-286,110,-200,858,-412,232
355280,453529212108177,28,3,3,3,3,862,-362,220,5,52,-13,54,112,282,6107,5925,-8189,11357,-286,110,-200,857,-415,234
355290,453529212108177,28,3,3,3,3,856,-380,233,0,36,-1,23,78,260,6093,5909,-8194,11369,-286,110,-200,855,-417,234
355300,453529224957032,28,3,3,3,3,856,-388,235,2,31,0,0,34,256,6079,5896,-8201,11378,-286,110,-200,854,-419,235
355310,453529224957032,28,3,3,3,3,847,-400,250,-5,21,14,-7,74,269,6065,5879,-8207,11390,-286,110,-200,852,-422,235
355320,453529238766930,28,3,3,3,3,824,-298,286,-27,127,50,-35,103,276,6053,5859,-8215,11401,-268,110,-187,851,-425,236
355330,453529238766930,28,3,3,3,3,824,-298,286,-27,127,50,-35,103,276,6053,5859,-8215,11401,-268,110,-187,851,-425,236
355330,453529270213912,28,3,3,3,3,888,-523,206,38,-95,-30,-154,107,262,6047,5836,-8229,11406,-268,110,-187,849,-427,237
355340,453529270213912,28,3,3,3,3,835,-381,244,-13,48,6,-69,70,261,6036,5817,-8239,11414,-268,110,-187,848,-430,237
355350,453529284864122,28,3,3,3,3,839,-442,268,-7,-9,29,-22,120,258,6026,5797,-8245,11425,-268,110,-187,846,-433,238
355360,453529284864122,28,3,3,3,3,857,-413,252,12,21,12,3,158,242,6018,5777,-8248,11438,-268,110,-187,845,-435,239
355370,453529299425634,28,3,3,3,3,865,-410,238,21,26,-2,7,161,211,6001,5765,-8244,11456,-291,116,-193,843,-437,241
355380,453529299425634,28,3,3,3,3,863,-398,240,20,40,-2,-35,162,172,5999,5745,-8246,11465,-291,116,-193,842,-438,242
355390,453529329883293,28,3,3,3,3,848,-395,250,6,44,6,-71,149,144,6001,5730,-8248,11470,-291,116,-193,841,-439,243
355400,453529329883293,28,3,3,3,3,847,-403,252,6,37,7,-84,152,133,6005,5714,-8250,11475,-291,116,-193,841,-441,244
355410,453529360227879,28,3,3,3,3,826,-420,246,-13,21,0,-89,139,125,6007,5698,-8254,11479,-291,116,-193,840,-442,245
355420,453529360227879,28,3,3,3,3,815,-432,241,-23,11,-5,-93,149,120,5994,5691,-8251,11491,-291,116,-193,839,-443,246
355430,453529365698401,28,3,3,3,3,802,-443,237,-35,1,-9,-108,202,113,5999,5670,-8255,11496,-291,116,-193,838,-444,247
355440,453529365698401,28,3,3,3,3,790,-458,245,-46,-12,-3,-117,233,85,6008,5647,-8257,11501,-291,116,-193,837,-445,249
355450,453529389066215,28,3,3,3,3,798,-464,257,-37,-17,6,-106,261,48,6020,5625,-8256,11506,-291,116,-193,836,-446,251
355460,453529389066215,28,3,3,3,3,806,-456,261,-28,-9,8,-89,289,31,6034,5603,-8254,11512,-291,116,-193,835,-447,253
355470,453529404985332,28,3,3,3,3,820,-457,260,-13,-9,4,-99,338,42,6050,5576,-8251,11518,-280,134,-206,833,-447,256
355480,453529404985332,28,3,3,3,3,849,-456,254,17,-7,-4,-106,371,74,6066,5545,-8247,11527,-280,134,-206,832,-448,259
355490,453529419473145,28,3,3,3,3,851,-460,255,21,-10,-6,-108,386,119,6079,5512,-8245,11538,-280,134,-206,830,-450,261
355500,453529419473145,28,3,3,3,3,857,-466,256,28,-14,-8,-87,361,168,6087,5479,-8243,11550,-280,134,-206,829,-452,264
355510,453529450833826,28,3,3,3,3,848,-468,250,21,-14,-16,-78,322,209,6091,5447,-8244,11563,-280,134,-206,827,-454,267
355520,453529450833826,28,3,3,3,3,843,-486,261,18,-29,-8,-70,282,258,6089,5415,-8247,11577,-268,128,-206,824,-456,269
355530,453529496779768,28,3,3,3,3,820,-498,261,-2,-38,-10,-71,281,329,6083,5380,-8251,11593,-268,128,-206,822,-459,271
355540,453529496779768,28,3,3,3,3,803,-510,249,-16,-46,-24,-43,306,387,6074,5342,-8255,11613,-268,128,-206,819,-463,274
355550,453529504772060,28,3,3,3,3,781,-521,269,-34,-54,-7,-22,329,425,6062,5301,-8258,11636,-268,128,-206,816,-467,277
355560,453529504772060,28,3,3,3,3,770,-525,283,-42,-54,3,26,315,459,6046,5261,-8260,11661,-268,128,-206,813,-471,279
355570,453529510649613,28,3,3,3,3,787,-525,290,-22,-50,7,91,265,460,6027,5226,-8258,11688,-262,134,-206,809,-475,282
355580,453529510649613,28,3,3,3,3,794,-504,270,-12,-26,-15,128,250,445,6006,5194,-8255,11715,-262,134,-206,806,-478,285
355590,453529524620343,28,3,3,3,3,787,-476,267,-16,5,-20,143,234,424,5985,5165,-8250,11742,-262,134,-206,803,-481,288
355600,453529524620343,28,3,3,3,3,783,-464,266,-18,20,-23,132,151,375,5964,5142,-8247,11765,-262,134,-206,801,-484,290
355610,453529539958626,28,3,3,3,3,776,-469,276,-22,17,-15,117,153,337,5946,5121,-8244,11785,-262,134,-206,799,-487,292
355620,453529539958626,28,3,3,3,3,759,-473,276,-37,16,-17,104,117,316,5928,5103,-8242,11803,-268,145,-217,797,-489,294
355630,453529570571286,28,3,3,3,3,721,-484,282,-74,7,-12,67,62,300,5910,5087,-8244,11818,-268,145,-217,795,-492,294
355640,453529570571286,28,3,3,3,3,696,-508,293,-96,-13,-2,17,42,287,5893,5072,-8250,11829,-268,145,-217,793,-494,295
355650,453529584409933,28,3,3,3,3,711,-509,292,-80,-12,-3,2,44,240,5879,5058,-8255,11838,-268,145,-217,792,-496,295
355660,453529584409933,28,3,3,3,3,722,-497,297,-68,1,0,28,49,187,5868,5048,-8257,11847,-268,145,-217,790,-498,296
355670,453529615769936,28,3,3,3,3,752,-479,282,-37,19,-14,49,37,135,5852,5046,-8253,11858,-251,134,-200,790,-499,296
355680,453529615769936,28,3,3,3,3,748,-468,280,-41,31,-16,44,16,96,5845,5042,-8252,11864,-251,134,-200,789,-499,297
355690,453529623734520,28,3,3,3,3,750,-465,288,-38,35,-9,31,18,61,5841,5039,-8251,11868,-251,134,-200,789,-500,297
355700,453529623734520,28,3,3,3,3,754,-469,301,-34,30,3,-3,16,27,5840,5037,-8252,11869,-251,134,-200,788,-500,297
355710,453529643377387,28,3,3,3,3,762,-481,295,-26,19,-2,-29,4,8,5841,5036,-8254,11868,-251,134,-200,788,-500,297
355720,453529643377387,28,3,3,3,3,779,-487,291,-9,13,-5,-18,2,-11,5826,5047,-8248,11874,-268,139,-211,788,-500,297
355730,453529659918794,28,3,3,3,3,798,-490,293,9,9,-4,-5,-15,-28,5827,5049,-8247,11873,-268,139,-211,789,-500,297
355740,453529659918794,28,3,3,3,3,811,-485,297,21,14,0,4,-92,-44,5826,5057,-8249,11869,-268,139,-211,789,-500,296
355750,453529673523275,28,3,3,3,3,804,-483,281,13,15,-14,-2,-165,-71,5823,5071,-8252,11862,-268,139,-211,790,-499,295
355760,453529673523275,28,3,3,3,3,797,-484,279,5,14,-14,-3,-231,-98,5819,5090,-8257,11853,-268,139,-211,791,-498,293
355770,453529704558226,28,3,3,3,3,795,-479,279,1,18,-11,32,-295,-110,5803,5121,-8258,11847,-262,145,-200,793,-497,290
355780,453529704558226,28,3,3,3,3,797,-487,275,2,8,-12,56,-376,-126,5793,5153,-8262,11835,-262,145,-200,795,-496,287
355790,453529720284478,28,3,3,3,3,800,-495,273,3,0,-10,87,-467,-134,5778,5192,-8268,11821,-262,145,-200,797,-494,284
355800,453529720284478,28,3,3,3,3,789,-498,304,-10,-4,23,72,-425,-115,5764,5227,-8273,11809,-262,145,-200,799,-493,280
355810,453529765403805,28,3,3,3,3,785,-505,299,-15,-13,21,88,-405,-81,5749,5258,-8277,11799,-262,145,-200,800,-492,278
355820,453529765403805,28,3,3,3,3,769,-494,291,-32,-2,16,129,-393,-53,5717,5298,-8273,11800,-268,139,-211,802,-491,275
355830,453529771897295,28,3,3,3,3,759,-453,283,-43,38,10,177,-400,-26,5695,5331,-8273,11796,-268,139,-211,803,-491,272
355840,453529771897295,28,3,3,3,3,773,-440,279,-31,50,9,256,-503,6,5665,5371,-8273,11793,-268,139,-211,805,-490,269
355850,453529778462035,28,3,3,3,3,773,-440,279,-31,50,9,256,-503,6,5665,5371,-8273,11793,-268,139,-211,805,-490,269
355850,453529778462035,28,3,3,3,3,832,-516,251,26,-25,-14,406,-669,247,5607,5415,-8274,11799,-268,139,-211,805,-491,266
355860,453529794160474,28,3,3,3,3,799,-497,295,-7,-6,32,222,-495,78,5573,5450,-8277,11797,-268,139,-211,806,-491,263
355870,453529794160474,28,3,3,3,3,781,-438,265,-26,52,2,284,-271,34,5546,5478,-8265,11805,-268,145,-187,807,-490,262
355880,453529810166726,28,3,3,3,3,779,-500,231,-28,-9,-29,334,-265,79,5519,5501,-8254,11814,-268,145,-187,807,-490,261
355890,453529810166726,28,3,3,3,3,802,-501,237,-6,-11,-22,321,-290,68,5492,5526,-8244,11822,-268,145,-187,808,-490,260
355900,453529825844644,28,3,3,3,3,802,-483,283,-6,6,22,338,-252,64,5466,5550,-8232,11832,-268,145,-187,808,-489,260
355910,453529825844644,28,3,3,3,3,807,-499,267,0,-9,6,371,-203,67,5442,5571,-8216,11844,-268,145,-187,808,-489,260
355920,453529855758033,28,3,3,3,3,807,-492,257,-1,-3,-4,369,-114,48,5424,5586,-8198,11858,-273,152,-200,808,-488,261
355930,453529855758033,28,3,3,3,3,809,-484,261,0,3,-1,343,-51,31,5409,5598,-8178,11872,-273,152,-200,808,-488,263
355940,453529871960586,28,3,3,3,3,803,-469,261,-4,17,-3,293,-2,16,5399,5606,-8160,11886,-273,152,-200,808,-487,264
355950,453529871960586,28,3,3,3,3,799,-476,259,-9,10,-7,230,48,11,5394,5609,-8144,11898,-273,152,-200,808,-486,266
355960,453529904129392,28,3,3,3,3,790,-498,264,-18,-12,-3,173,105,10,5392,5607,-8130,11909,-273,152,-200,808,-486,268
355970,453529904129392,28,3,3,3,3,765,-524,276,-42,-37,6,149,147,9,5393,5599,-8117,11921,-268,139,-217,807,-486,270
355980,453529913920018,28,3,3,3,3,776,-483,269,-30,2,-3,87,181,-1,5398,5590,-8106,11931,-268,139,-217,807,-486,272
355990,453529913920018,28,3,3,3,3,770,-477,284,-35,8,10,42,214,-10,5407,5578,-8097,11939,-268,139,-217,806,-485,274
356000,453529929335540,28,3,3,3,3,779,-480,275,-26,5,0,6,275,-9,5420,5560,-8088,11947,-268,139,-217,805,-485,276
356010,453529929335540,28,3,3,3,3,787,-479,278,-17,6,0,-33,260,-20,5434,5543,-8082,11953,-268,139,-217,804,-485,278
356020,453529944423146,28,3,3,3,3,792,-479,275,-11,6,-4,-66,241,-29,5466,5515,-8087,11948,-262,152,-217,804,-485,280
356030,453529944423146,28,3,3,3,3,794,-484,278,-9,0,-4,-114,257,-38,5483,5496,-8085,11950,-262,152,-217,803,-485,282
356040,453529974076847,28,3,3,3,3,797,-491,283,-5,-5,0,-128,199,-42,5498,5481,-8086,11949,-262,152,-217,803,-485,283
356050,453529974076847,28,3,3,3,3,785,-503,291,-17,-17,7,-88,87,-32,5507,5474,-8089,11947,-262,152,-217,803,-485,283
356060,453530006017475,28,3,3,3,3,780,-506,292,-23,-20,8,-53,33,-18,5511,5470,-8091,11945,-262,152,-217,803,-485,283
356070,453530006017475,28,3,3,3,3,777,-504,288,-25,-18,4,-38,27,-14,5527,5457,-8099,11938,-268,156,-206,803,-486,283
356080,453530010962215,28,3,3,3,3,779,-494,281,-23,-8,-2,-16,0,-4,5527,5455,-8100,11938,-268,156,-206,802,-486,283
356090,453530010962215,28,3,3,3,3,790,-481,279,-12,4,-4,4,-16,0,5526,5456,-8101,11937,-268,156,-206,802,-486,283
356100,453530035305446,28,3,3,3,3,796,-478,278,-6,7,-5,17,-21,-4,5524,5458,-8101,11938,-268,156,-206,803,-486,283
356110,453530035305446,28,3,3,3,3,796,-469,275,-6,16,-8,6,-27,-13,5524,5460,-8101,11936,-268,156,-206,803,-486,283
356120,453530050753938,28,3,3,3,3,797,-474,282,-5,11,0,0,-34,-15,5524,5463,-8102,11935,-268,145,-193,803,-486,283
356130,453530050753938,28,3,3,3,3,791,-478,282,-11,7,0,-10,-37,-13,5523,5466,-8103,11933,-268,145,-193,803,-485,282
356140,453530065020033,28,3,3,3,3,780,-481,282,-23,4,0,-20,-42,-10,5523,5468,-8105,11931,-268,145,-193,803,-485,282
356150,453530065020033,28,3,3,3,3,773,-486,285,-30,0,3,-16,-63,-1,5520,5471,-8108,11928,-268,145,-193,803,-485,281
356160,453530094818838,28,3,3,3,3,779,-498,285,-24,-12,4,-12,-64,10,5517,5474,-8111,11926,-268,145,-193,803,-486,280
356170,453530094818838,28,3,3,3,3,785,-504,282,-18,-17,2,-1,-51,25,5512,5476,-8114,11926,-273,145,-193,803,-486,280
356180,453530109504881,28,3,3,3,3,789,-496,281,-14,-9,1,6,-24,28,5509,5475,-8116,11927,-273,145,-193,803,-486,280
356190,453530109504881,28,3,3,3,3,790,-486,285,-13,0,5,15,-24,26,5505,5476,-8116,11928,-273,145,-193,803,-487,280
356200,453530154470146,28,3,3,3,3,798,-473,278,-5,14,-1,11,-22,27,5502,5476,-8117,11929,-273,145,-193,803,-487,280
356210,453530154470146,28,3,3,3,3,799,-478,275,-4,9,-4,5,-12,32,5499,5475,-8118,11929,-273,145,-193,803,-487,280
356220,453530161717022,28,3,3,3,3,798,-479,277,-5,7,-2,5,-16,34,5504,5470,-8123,11926,-273,152,-217,803,-487,279
356230,453530161717022,28,3,3,3,3,799,-480,281,-4,7,1,7,-17,28,5501,5470,-8125,11927,-273,152,-217,803,-488,279
356240,453530171587439,28,3,3,3,3,799,-484,288,-3,3,8,3,-9,26,5499,5469,-8126,11927,-273,152,-217,803,-488,279
356250,453530171587439,28,3,3,3,3,801,-488,290,-1,0,10,9,-3,23,5497,5468,-8125,11929,-273,152,-217,802,-488,279
356260,453530199561609,28,3,3,3,3,802,-492,287,0,-3,7,15,0,15,5496,5468,-8125,11930,-273,152,-217,802,-488,279
356270,453530199561609,28,3,3,3,3,799,-482,288,-3,6,8,16,0,7,5496,5468,-8124,11930,-268,145,-206,802,-488,279
356280,453530215123433,28,3,3,3,3,800,-482,288,-2,6,8,23,-2,1,5496,5468,-8122,11931,-268,145,-206,802,-488,280
356290,453530215123433,28,3,3,3,3,797,-482,288,-5,6,7,28,-4,0,5495,5469,-8121,11933,-268,145,-206,802,-488,280
356300,453530245837447,28,3,3,3,3,792,-487,287,-9,1,6,30,-4,-3,5494,5470,-8118,11934,-268,145,-206,802,-488,280
356310,453530245837447,28,3,3,3,3,782,-488,284,-20,0,3,23,0,-1,5493,5470,-8117,11935,-268,145,-206,802,-488,280
356320,453530252857551,28,3,3,3,3,776,-487,288,-26,1,7,8,7,0,5504,5463,-8121,11931,-257,145,-217,802,-488,280
356330,453530252857551,28,3,3,3,3,778,-486,285,-24,2,4,0,16,5,5504,5461,-8121,11932,-257,145,-217,802,-488,280
356340,453530276173179,28,3,3,3,3,780,-484,286,-22,4,5,9,5,8,5504,5461,-8120,11933,-257,145,-217,802,-488,281
356350,453530276173179,28,3,3,3,3,787,-481,285,-15,6,4,11,0,8,5504,5461,-8119,11933,-257,145,-217,802,-488,281
356360,453530289846305,28,3,3,3,3,790,-480,284,-12,7,3,13,-4,2,5503,5461,-8118,11934,-257,145,-217,802,-488,281
356370,453530289846305,28,3,3,3,3,792,-481,282,-9,6,0,7,-7,-6,5504,5460,-8118,11934,-268,145,-206,802,-488,281
356380,453530321855215,28,3,3,3,3,792,-479,286,-10,9,5,0,-7,-15,5505,5461,-8118,11934,-268,145,-206,802,-488,281
356390,453530321855215,28,3,3,3,3,787,-480,284,-15,7,3,-2,-14,-21,5506,5463,-8118,11933,-268,145,-206,802,-487,281
356400,453530336408393,28,3,3,3,3,781,-483,282,-21,4,1,-8,-16,-24,5507,5465,-8117,11932,-268,145,-206,802,-487,281
356410,453530336408393,28,3,3,3,3,777,-484,286,-25,2,5,-14,-11,-25,5508,5466,-8118,11930,-268,145,-206,803,-487,280
356420,453530349735217,28,3,3,3,3,777,-483,286,-26,4,5,-18,-7,-24,5511,5465,-8119,11928,-257,134,-230,803,-487,280
356430,453530349735217,28,3,3,3,3,785,-476,282,-18,10,1,-16,-9,-24,5513,5466,-8119,11927,-257,134,-230,803,-487,280
356440,453530395820118,28,3,3,3,3,788,-479,281,-15,8,0,-19,-9,-25,5515,5467,-8120,11925,-257,134,-230,803,-487,280
356450,453530395820118,28,3,3,3,3,794,-476,283,-9,10,3,-26,-11,-28,5517,5468,-8121,11923,-257,134,-230,803,-487,280
356460,453530401561941,28,3,3,3,3,798,-483,284,-5,3,4,-34,-15,-28,5519,5469,-8123,11920,-257,134,-230,803,-486,280
356470,453530401561941,28,3,3,3,3,800,-489,283,-3,-2,3,-39,-13,-34,5522,5470,-8124,11917,-262,139,-193,804,-486,279
356480,453530409291265,28,3,3,3,3,800,-490,284,-3,-3,5,-40,-6,-37,5525,5471,-8126,11914,-262,139,-193,804,-486,279
356490,453530409291265,28,3,3,3,3,799,-494,283,-4,-7,4,-43,-5,-39,5529,5471,-8128,11911,-262,139,-193,804,-486,279
356500,453530438764705,28,3,3,3,3,803,-494,282,0,-8,3,-56,1,-52,5534,5471,-8130,11907,-262,139,-193,804,-486,279
356510,453530438764705,28,3,3,3,3,796,-489,291,-8,-3,12,-101,29,-68,5543,5469,-8133,11902,-262,139,-193,804,-485,278
356520,453530454018978,28,3,3,3,3,796,-488,287,-8,-3,8,-116,46,-69,5565,5457,-8143,11891,-268,156,-206,805,-485,278
356530,453530454018978,28,3,3,3,3,791,-491,283,-14,-6,4,-117,46,-75,5575,5453,-8147,11885,-268,156,-206,805,-485,278
356540,453530469797573,28,3,3,3,3,792,-478,282,-13,6,3,-116,40,-77,5586,5450,-8151,11879,-268,156,-206,805,-484,278
356550,453530469797573,28,3,3,3,3,789,-477,281,-16,7,3,-105,31,-72,5595,5448,-8154,11873,-268,156,-206,805,-484,278
356560,453530499626482,28,3,3,3,3,784,-479,292,-21,4,14,-105,25,-69,5603,5445,-8158,11867,-268,156,-206,806,-484,277
356570,453530499626482,28,3,3,3,3,781,-477,290,-24,7,12,-102,20,-56,5613,5442,-8163,11861,-268,145,-211,806,-484,277
356580,453530514676796,28,3,3,3,3,792,-479,263,-14,4,-13,-90,0,-44,5618,5441,-8167,11856,-268,145,-211,806,-484,277
356590,453530514676796,28,3,3,3,3,791,-477,271,-15,6,-5,-97,-25,-42,5623,5441,-8173,11850,-268,145,-211,806,-484,276
356600,453530529623360,28,3,3,3,3,791,-479,276,-16,4,1,-123,-22,-39,5628,5440,-8180,11842,-268,145,-211,807,-484,275
356610,453530529623360,28,3,3,3,3,790,-474,277,-16,9,2,-130,-40,-35,5632,5440,-8189,11835,-268,145,-211,807,-484,274
356620,453530560010030,28,3,3,3,3,791,-481,276,-16,2,3,-128,-60,-26,5637,5440,-8199,11825,-268,145,-217,807,-484,273
356630,453530560010030,28,3,3,3,3,794,-487,280,-13,-3,7,-111,-52,-14,5639,5440,-8208,11819,-268,145,-217,807,-484,272
356640,453530576442167,28,3,3,3,3,799,-491,277,-8,-7,6,-85,-49,-10,5640,5441,-8214,11813,-268,145,-217,808,-484,271
356650,453530576442167,28,3,3,3,3,807,-496,273,0,-11,3,-63,-49,-7,5640,5441,-8220,11809,-268,145,-217,808,-485,270
356660,453530589876700,28,3,3,3,3,804,-493,271,-3,-8,1,-55,-49,-1,5639,5443,-8225,11805,-268,145,-217,808,-485,269
356670,453530589876700,28,3,3,3,3,804,-489,269,-3,-4,0,-49,-34,2,5646,5438,-8233,11799,-268,152,-200,808,-485,269
356680,453530620162901,28,3,3,3,3,807,-488,270,-1,-3,1,-52,-23,1,5646,5438,-8237,11796,-268,152,-200,808,-485,268
356690,453530620162901,28,3,3,3,3,805,-493,268,-3,-8,0,-62,-16,1,5648,5437,-8241,11792,-268,152,-200,808,-485,268
356700,453530635696912,28,3,3,3,3,806,-492,271,-2,-6,3,-59,-26,-4,5648,5437,-8246,11789,-268,152,-200,808,-485,267
356710,453530635696912,28,3,3,3,3,804,-494,270,-4,-8,3,-60,-28,-13,5649,5437,-8250,11785,-268,152,-200,808,-485,267
356720,453530649422278,28,3,3,3,3,791,-493,270,-17,-7,3,-60,-27,-21,5642,5444,-8250,11786,-280,139,-206,808,-486,266
356730,453530649422278,28,3,3,3,3,790,-488,259,-18,-2,-6,-42,-18,-21,5644,5445,-8253,11783,-280,139,-206,809,-485,266
356740,453530681391136,28,3,3,3,3,780,-489,266,-29,-3,0,-42,-12,-19,5645,5444,-8256,11780,-280,139,-206,809,-485,266
356750,453530681391136,28,3,3,3,3,771,-485,274,-37,0,8,-33,-17,-21,5646,5445,-8258,11778,-280,139,-206,809,-485,265
356760,453530694454210,28,3,3,3,3,775,-483,263,-33,2,-1,-19,-14,-12,5647,5445,-8259,11777,-280,139,-206,809,-486,265
356770,453530694454210,28,3,3,3,3,775,-482,259,-33,3,-6,-33,-6,-4,5642,5447,-8259,11778,-291,152,-193,809,-486,265
356780,453530710764316,28,3,3,3,3,779,-473,258,-29,12,-6,-44,-29,-12,5642,5448,-8262,11775,-291,152,-193,809,-486,265
356790,453530710764316,28,3,3,3,3,775,-467,252,-33,18,-11,-62,-59,-25,5643,5451,-8267,11770,-291,152,-193,809,-486,264
356800,453530741552756,28,3,3,3,3,782,-459,253,-27,26,-9,-84,-62,-33,5645,5454,-8273,11763,-291,152,-193,809,-486,263
356810,453530741552756,28,3,3,3,3,786,-462,253,-23,23,-8,-107,-88,-51,5647,5458,-8282,11754,-291,152,-193,810,-486,261
356820,453530754385883,28,3,3,3,3,792,-467,244,-19,18,-15,-151,-111,-71,5652,5464,-8293,11742,-268,145,-200,811,-485,260
356830,453530754385883,28,3,3,3,3,794,-474,238,-17,11,-19,-184,-121,-86,5657,5470,-8306,11727,-268,145,-200,812,-485,258
356840,453530771269634,28,3,3,3,3,792,-470,245,-19,14,-10,-212,-125,-95,5664,5476,-8320,11711,-268,145,-200,812,-485,255
356850,453530771269634,28,3,3,3,3,779,-481,255,-34,3,2,-224,-120,-102,5672,5481,-8335,11694,-268,145,-200,813,-485,253
356860,453530801337137,28,3,3,3,3,770,-474,249,-44,10,-1,-211,-102,-104,5680,5485,-8349,11678,-268,145,-200,814,-484,251
356870,453530801337137,28,3,3,3,3,753,-476,232,-61,8,-17,-183,-69,-105,5688,5488,-8359,11665,-286,152,-206,815,-484,249
356880,453530808331148,28,3,3,3,3,753,-476,232,-61,8,-17,-183,-69,-105,5688,5488,-8359,11665,-286,152,-206,815,-484,249
356890,453530808331148,28,3,3,3,3,721,-451,222,-94,32,-26,-169,-67,-118,5698,5493,-8369,11652,-286,152,-206,816,-483,248
356890,453530830193130,28,3,3,3,3,709,-438,222,-107,44,-24,-178,-85,-133,5708,5499,-8379,11637,-286,152,-206,816,-483,246
356900,453530830193130,28,3,3,3,3,696,-418,221,-121,63,-23,-203,-120,-148,5718,5507,-8391,11620,-286,152,-206,818,-482,244
356910,453530845697975,28,3,3,3,3,685,-405,215,-133,76,-26,-230,-158,-159,5727,5517,-8406,11599,-286,152,-206,819,-481,242
356920,453530845697975,28,3,3,3,3,650,-376,198,-170,104,-40,-259,-206,-168,5733,5532,-8422,11578,-268,139,-180,820,-480,238
356930,453530874824280,28,3,3,3,3,632,-355,173,-190,124,-61,-298,-240,-172,5741,5546,-8443,11551,-268,139,-180,822,-479,235
356940,453530874824280,28,3,3,3,3,613,-348,165,-209,130,-66,-311,-251,-159,5749,5559,-8465,11525,-268,139,-180,823,-479,231
356950,453530880681260,28,3,3,3,3,536,-327,172,-288,151,-54,-311,-258,-130,5755,5572,-8489,11498,-268,139,-180,825,-478,227
356960,453530880681260,28,3,3,3,3,478,-321,164,-347,156,-59,-281,-269,-95,5757,5584,-8512,11474,-268,139,-180,826,-478,223
356970,453530906371106,28,3,3,3,3,425,-310,132,-401,168,-87,-224,-287,-57,5754,5598,-8534,11453,-286,152,-193,827,-478,219
356980,453530906371106,28,3,3,3,3,375,-294,90,-452,184,-125,-153,-267,-25,5748,5611,-8551,11437,-286,152,-193,827,-478,216
356990,453530919567253,28,3,3,3,3,344,-218,2,-484,260,-211,-94,-252,-6,5739,5623,-8565,11425,-286,152,-193,828,-479,213
357000,453530919567253,28,3,3,3,3,368,-179,5,-460,299,-205,-73,-233,3,5730,5636,-8576,11414,-286,152,-193,829,-479,211
357010,453530949283558,28,3,3,3,3,414,-152,41,-415,327,-166,-106,-226,6,5723,5646,-8590,11402,-286,152,-193,829,-479,208
357020,453530949283558,28,3,3,3,3,477,-150,97,-352,329,-108,-168,-240,15,5703,5664,-8602,11394,-297,145,-168,830,-480,205
357030,453530964482154,28,3,3,3,3,669,-204,207,-160,276,6,-249,-296,5,5697,5675,-8627,11373,-297,145,-168,830,-480,201
357040,453530964482154,28,3,3,3,3,795,-288,265,-35,192,69,-337,-349,-10,5692,5687,-8658,11346,-297,145,-168,831,-481,196
357050,453530981064707,28,3,3,3,3,932,-404,316,100,77,126,-440,-381,-42,5690,5699,-8696,11312,-297,145,-168,832,-481,190
357060,453530981064707,28,3,3,3,3,1151,-556,357,317,-74,172,-560,-366,-59,5694,5707,-8740,11272,-297,145,-168,833,-482,184
357070,453531010454502,28,3,3,3,3,1446,-921,306,611,-438,128,-628,-354,-73,5706,5708,-8790,11226,-280,156,-155,834,-483,178
357080,453531010454502,28,3,3,3,3,1528,-1095,292,693,-612,119,-502,-301,-95,5713,5716,-8827,11190,-280,156,-155,835,-483,172
357090,453531026372160,28,3,3,3,3,1501,-1189,296,664,-706,127,-245,-220,-76,5715,5725,-8846,11169,-280,156,-155,836,-482,169
357100,453531026372160,28,3,3,3,3,1249,-1072,300,412,-590,131,-38,-83,-57,5715,5732,-8850,11163,-280,156,-155,837,-482,168
357110,453531039906640,28,3,3,3,3,1106,-973,292,269,-491,122,132,85,-7,5715,5731,-8839,11172,-280,156,-155,836,-482,169
357120,453531039906640,28,3,3,3,3,975,-864,265,139,-382,91,304,245,88,5713,5720,-8816,11197,-280,152,-161,835,-482,173
357130,453531070009664,28,3,3,3,3,914,-742,259,80,-259,80,404,341,149,5707,5705,-8785,11231,-280,152,-161,834,-483,178
357140,453531070009664,28,3,3,3,3,1013,-501,300,180,-17,116,376,311,149,5701,5690,-8757,11264,-280,152,-161,833,-483,183
357150,453531074942581,28,3,3,3,3,1013,-501,300,180,-17,116,376,311,149,5701,5690,-8757,11264,-280,152,-161,833,-483,183
357160,453531074942581,28,3,3,3,3,1148,-435,345,317,49,158,231,271,143,5698,5674,-8739,11288,-280,152,-161,831,-484,187
357160,453531099165969,28,3,3,3,3,1342,-504,400,512,-18,210,62,215,173,5696,5654,-8733,11303,-280,152,-161,830,-485,189
357170,453531099165969,28,3,3,3,3,1553,-644,449,724,-156,259,-109,147,192,5694,5632,-8742,11308,-273,145,-161,829,-487,190
357180,453531114540398,28,3,3,3,3,1949,-1067,495,1121,-576,305,-230,32,192,5691,5614,-8761,11304,-273,145,-161,827,-490,189
357190,453531114540398,28,3,3,3,3,2127,-1342,493,1299,-850,305,-202,-122,163,5681,5607,-8782,11296,-273,145,-161,827,-492,187
357200,453531130256128,28,3,3,3,3,2205,-1531,462,1377,-1037,277,-82,-205,91,5668,5613,-8796,11289,-273,145,-161,827,-493,185
357210,453531130256128,28,3,3,3,3,2141,-1564,414,1313,-1071,230,30,-186,-14,5659,5626,-8799,11284,-273,145,-161,827,-492,183
357220,453531160199413,28,3,3,3,3,1748,-1187,323,919,-696,140,140,-158,-156,5658,5646,-8791,11281,-273,152,-161,828,-491,183
357230,453531160199413,28,3,3,3,3,1567,-1006,299,737,-517,115,260,-74,-195,5658,5668,-8772,11285,-273,152,-161,829,-488,183
357240,453531173784674,28,3,3,3,3,1349,-843,312,519,-356,126,411,72,-166,5659,5684,-8739,11302,-273,152,-161,830,-486,186
357250,453531173784674,28,3,3,3,3,996,-598,264,166,-114,73,513,237,-134,5663,5692,-8696,11330,-273,152,-161,830,-484,191
357270,453531188493113,28,3,3,3,3,831,-497,208,0,-15,11,543,288,-145,5668,5697,-8649,11360,-273,152,-161,831,-481,196
357270,453531188493113,28,3,3,3,3,691,-386,147,-139,92,-54,531,250,-173,5685,5698,-8608,11382,-280,168,-148,831,-479,202
357280,453531235331035,28,3,3,3,3,578,-284,97,-253,192,-109,509,237,-187,5692,5708,-8563,11408,-280,168,-148,831,-476,206
357290,453531235331035,28,3,3,3,3,357,-116,19,-474,357,-191,459,215,-200,5700,5718,-8521,11430,-280,168,-148,832,-473,211
357300,453531242587806,28,3,3,3,3,255,-57,-22,-577,413,-237,376,153,-197,5707,5729,-8487,11446,-280,168,-148,833,-470,214
357310,453531242587806,28,3,3,3,3,152,0,-55,-681,468,-271,291,90,-194,5715,5742,-8460,11456,-280,168,-148,833,-468,216
357320,453531250096245,28,3,3,3,3,56,53,-79,-778,519,-297,224,38,-194,5722,5755,-8439,11461,-273,145,-168,834,-466,218
357330,453531250096245,28,3,3,3,3,-109,106,-134,-944,570,-353,174,-31,-166,5725,5770,-8424,11463,-273,145,-168,835,-464,218
357340,453531279786091,28,3,3,3,3,-175,122,-154,-1012,585,-372,105,-129,-116,5723,5786,-8418,11460,-273,145,-168,836,-462,218
357350,453531279786091,28,3,3,3,3,-222,145,-172,-1059,607,-389,19,-204,-90,5719,5804,-8420,11452,-273,145,-168,837,-462,216
357360,453531294348176,28,3,3,3,3,-242,186,-147,-1081,648,-361,-47,-227,-70,5714,5820,-8428,11440,-273,145,-168,838,-461,214
357370,453531294348176,28,3,3,3,3,-181,248,-131,-1021,709,-342,-132,-259,-52,5712,5833,-8444,11423,-268,139,-168,839,-461,211
357380,453531308956875,28,3,3,3,3,-123,253,-127,-963,714,-334,-195,-295,-19,5706,5846,-8464,11404,-268,139,-168,839,-461,207
357390,453531308956875,28,3,3,3,3,-49,223,-111,-890,685,-314,-238,-336,-7,5698,5860,-8490,11383,-268,139,-168,840,-462,203
357400,453531325483387,28,3,3,3,3,28,187,-89,-812,649,-288,-264,-364,-13,5690,5875,-8517,11358,-268,139,-168,841,-462,198
357410,453531325483387,28,3,3,3,3,28,187,-89,-812,649,-288,-264,-364,-13,5690,5875,-8517,11358,-268,139,-168,841,-462,198
357420,453531341474222,28,3,3,3,3,181,42,-57,-660,505,-251,-288,-374,-29,5684,5890,-8546,11332,-268,139,-168,842,-462,193
357430,453531341474222,28,3,3,3,3,234,-34,-33,-608,428,-222,-302,-378,-51,5669,5914,-8569,11309,-291,134,-161,843,-463,188
357430,453531370379486,28,3,3,3,3,258,-108,-2,-586,354,-186,-289,-361,-70,5666,5931,-8596,11281,-291,134,-161,844,-463,183
357440,453531370379486,28,3,3,3,3,256,-230,26,-589,232,-153,-245,-310,-92,5665,5947,-8618,11257,-291,134,-161,845,-462,179
357450,453531385702143,28,3,3,3,3,252,-259,42,-594,202,-133,-160,-246,-116,5666,5962,-8632,11237,-291,134,-161,846,-461,176
357460,453531385702143,28,3,3,3,3,238,-259,48,-609,201,-125,-59,-160,-135,5669,5977,-8636,11225,-291,134,-161,847,-460,174
357470,453531400196207,28,3,3,3,3,224,-241,56,-624,218,-117,36,-56,-152,5679,5985,-8633,11218,-291,152,-155,848,-459,174
357480,453531400196207,28,3,3,3,3,231,-159,91,-617,297,-84,128,47,-157,5687,5993,-8619,11220,-291,152,-155,849,-457,175
357490,453531429805533,28,3,3,3,3,260,-117,127,-588,338,-50,195,123,-139,5695,5998,-8598,11229,-291,152,-155,849,-455,177
357500,453531429805533,28,3,3,3,3,316,-73,158,-534,380,-20,198,149,-108,5702,6000,-8578,11240,-291,152,-155,850,-454,179
357520,453531445241212,28,3,3,3,3,418,-51,188,-432,401,6,112,164,-50,5709,5996,-8565,11249,-291,152,-155,850,-453,182
357520,453531445241212,28,3,3,3,3,750,-139,197,-99,315,15,-60,85,17,5714,5988,-8566,11249,-291,145,-148,849,-454,182
357530,453531460109703,28,3,3,3,3,964,-258,195,114,196,15,-338,-88,100,5715,5978,-8593,11233,-291,145,-148,849,-455,179
357540,453531460109703,28,3,3,3,3,1194,-421,217,345,37,42,-553,-240,221,5708,5966,-8642,11206,-291,145,-148,848,-458,174
357550,453531492036633,28,3,3,3,3,1450,-646,209,603,-182,39,-602,-233,386,5693,5943,-8698,11182,-291,145,-148,847,-463,169
357560,453531492036633,28,3,3,3,3,1981,-1242,205,1136,-772,39,-610,-43,567,5676,5900,-8755,11169,-291,145,-148,844,-469,166
357570,453531512269916,28,3,3,3,3,2266,-1495,241,1425,-1018,77,-641,188,628,5668,5838,-8809,11164,-273,134,-148,841,-476,164
357580,453531512269916,28,3,3,3,3,2463,-1768,450,1625,-1285,285,-396,188,566,5656,5787,-8845,11168,-273,134,-148,837,-482,164
357600,453531524715647,28,3,3,3,3,2520,-1880,579,1684,-1394,417,-208,-77,385,5635,5767,-8872,11167,-273,134,-148,835,-486,162
357600,453531524715647,28,3,3,3,3,2468,-1767,612,1632,-1279,454,-342,-243,122,5626,5765,-8905,11147,-273,134,-148,835,-488,158
357610,453531550349139,28,3,3,3,3,2446,-1708,628,1610,-1219,472,-250,-148,-21,5628,5768,-8924,11129,-273,134,-148,835,-488,155
357620,453531550349139,28,3,3,3,3,2442,-1632,659,1605,-1143,504,-112,5,-43,5645,5758,-8935,11117,-268,152,-155,836,-488,155
357630,453531564343880,28,3,3,3,3,2368,-1452,643,1532,-965,487,-71,133,-51,5657,5750,-8934,11116,-268,152,-155,836,-487,155
357640,453531564343880,28,3,3,3,3,2244,-1355,583,1408,-868,425,6,248,-51,5672,5737,-8924,11122,-268,152,-155,836,-487,158
357650,453531580844402,28,3,3,3,3,2020,-1248,505,1184,-761,343,108,359,-11,5687,5719,-8906,11138,-268,152,-155,835,-487,162
357670,453531580844402,28,3,3,3,3,1767,-1139,439,933,-652,271,240,448,51,5698,5697,-8879,11166,-268,152,-155,834,-487,167
357680,453531594549977,28,3,3,3,3,1227,-852,314,394,-364,139,375,553,113,5721,5658,-8850,11197,-268,163,-148,832,-487,174
357680,453531594549977,28,3,3,3,3,1227,-852,314,394,-364,139,375,553,113,5721,5658,-8850,11197,-268,163,-148,832,-487,174
357680,453531625708469,28,3,3,3,3,988,-688,231,157,-200,48,478,650,151,5728,5625,-8805,11245,-268,163,-148,830,-488,182
357690,453531625708469,28,3,3,3,3,781,-519,142,-47,-30,-49,517,666,139,5735,5594,-8757,11294,-268,163,-148,828,-488,191
357700,453531633174043,28,3,3,3,3,608,-357,75,-218,130,-124,478,612,91,5744,5566,-8711,11339,-268,163,-148,826,-488,199
357710,453531633174043,28,3,3,3,3,295,-86,-21,-530,401,-227,379,504,20,5755,5546,-8673,11373,-268,163,-148,825,-487,206
357720,453531655915400,28,3,3,3,3,150,27,-44,-674,513,-255,265,366,-61,5757,5543,-8637,11400,-280,139,-161,825,-486,211
357730,453531655915400,28,3,3,3,3,18,116,-67,-807,600,-281,130,229,-144,5773,5539,-8618,11409,-280,139,-161,825,-484,213
357740,453531669315818,28,3,3,3,3,-85,181,-65,-911,664,-280,0,147,-208,5793,5540,-8607,11407,-280,139,-161,825,-482,215
357760,453531669315818,28,3,3,3,3,-224,202,-80,-1050,683,-296,-63,88,-217,5813,5542,-8601,11399,-280,139,-161,826,-481,215
357770,453531698808164,28,3,3,3,3,-238,196,-95,-1066,676,-311,-117,21,-194,5829,5546,-8602,11388,-280,139,-161,827,-479,215
357770,453531698808164,28,3,3,3,3,-249,171,-98,-1078,650,-312,-171,-106,-159,5839,5555,-8611,11372,-268,145,-142,828,-478,213
357780,453531729984886,28,3,3,3,3,-202,146,-70,-1032,624,-281,-215,-226,-132,5843,5568,-8628,11351,-268,145,-142,830,-477,210
357790,453531729984886,28,3,3,3,3,-175,145,-72,-1007,622,-277,-246,-365,-115,5841,5589,-8651,11324,-268,145,-142,831,-477,205
357810,453531746062127,28,3,3,3,3,-55,112,-47,-890,589,-242,-270,-414,-79,5828,5632,-8705,11268,-268,145,-142,834,-476,195
357830,453531746062127,28,3,3,3,3,95,39,-5,-740,515,-195,-276,-421,-67,5821,5652,-8733,11240,-280,152,-155,835,-476,189
357840,453531760326347,28,3,3,3,3,170,4,-9,-665,480,-193,-272,-414,-76,5814,5672,-8761,11212,-280,152,-155,836,-476,184
357850,453531760326347,28,3,3,3,3,232,-34,-5,-605,441,-185,-253,-393,-103,5809,5693,-8786,11184,-280,152,-155,838,-476,179
357850,453531789540673,28,3,3,3,3,275,-79,-10,-564,396,-185,-222,-369,-141,5807,5716,-8806,11158,-280,152,-155,839,-475,175
357860,453531789540673,28,3,3,3,3,313,-169,-11,-528,304,-182,-182,-364,-186,5807,5741,-8823,11132,-280,152,-155,841,-474,171
357870,453531803769268,28,3,3,3,3,293,-202,-6,-550,269,-173,-123,-349,-227,5807,5769,-8835,11107,-286,152,-155,843,-472,167
357880,453531803769268,28,3,3,3,3,247,-215,12,-597,254,-151,-42,-312,-261,5809,5800,-8839,11087,-286,152,-155,844,-469,164
357890,453531835967709,28,3,3,3,3,205,-204,22,-641,262,-140,53,-243,-287,5813,5830,-8834,11073,-286,152,-155,846,-467,162
357910,453531835967709,28,3,3,3,3,140,-163,17,-708,300,-144,171,-130,-282,5818,5857,-8819,11068,-286,152,-155,848,-464,161
357920,453531850405315,28,3,3,3,3,149,-135,9,-700,325,-153,265,-3,-256,5825,5878,-8795,11073,-286,152,-155,849,-461,163
357930,453531850405315,28,3,3,3,3,202,-106,37,-648,351,-127,287,102,-237,5839,5889,-8768,11080,-280,152,-148,850,-458,165
357930,453531857031513,28,3,3,3,3,202,-106,37,-648,351,-127,287,102,-237,5839,5889,-8768,11080,-280,152,-148,850,-458,165
357930,453531857031513,28,3,3,3,3,406,-36,169,-445,419,1,224,121,-238,5852,5901,-8743,11087,-280,152,-148,851,-456,167
357940,453531880597245,28,3,3,3,3,562,-45,263,-290,408,95,120,38,-241,5864,5914,-8727,11087,-280,152,-148,852,-453,168
357950,453531880597245,28,3,3,3,3,739,-107,328,-114,343,161,-22,-101,-215,5873,5929,-8725,11075,-280,152,-148,854,-451,167
357960,453531894507402,28,3,3,3,3,936,-200,304,80,249,140,-194,-243,-151,5877,5945,-8739,11053,-280,152,-148,855,-450,164
357970,453531894507402,28,3,3,3,3,1435,-622,-17,579,-171,-177,-334,-338,-8,5858,5965,-8763,11033,-297,134,-137,856,-451,159
357990,453531911291415,28,3,3,3,3,1710,-919,-53,855,-466,-208,-407,-251,136,5851,5961,-8800,11010,-297,134,-137,855,-453,155
358000,453531911291415,28,3,3,3,3,2000,-1121,-4,1144,-665,-156,-474,-121,160,5851,5946,-8838,10988,-297,134,-137,855,-455,151
358010,453531942013188,28,3,3,3,3,2330,-1352,230,1475,-895,81,-424,-125,105,5853,5935,-8870,10967,-297,134,-137,854,-457,148
358020,453531942013188,28,3,3,3,3,2662,-1906,470,1807,-1449,326,-384,-216,-28,5857,5937,-8899,10940,-297,134,-137,855,-457,144
358020,453531953512669,28,3,3,3,3,2691,-1911,449,1834,-1455,310,-375,-334,-231,5877,5947,-8931,10898,-286,152,-155,857,-455,139
358030,453531953512669,28,3,3,3,3,2725,-1893,522,1866,-1440,385,-219,-153,-384,5900,5968,-8937,10870,-286,152,-155,859,-452,136
358040,453531969351681,28,3,3,3,3,2728,-1804,521,1867,-1355,383,32,122,-377,5927,5980,-8919,10863,-286,152,-155,860,-448,138
358050,453531969351681,28,3,3,3,3,2522,-1439,555,1660,-993,413,201,322,-301,5954,5982,-8887,10874,-286,152,-155,861,-445,142
358070,453532001661215,28,3,3,3,3,2397,-1241,531,1535,-798,384,325,411,-221,5976,5979,-8847,10895,-286,152,-155,862,-443,147
358080,453532001661215,28,3,3,3,3,2216,-1064,464,1354,-622,310,454,423,-105,5988,5973,-8803,10928,-291,145,-142,862,-441,153
358090,453532015508092,28,3,3,3,3,1735,-787,337,874,-346,176,546,447,-1,5991,5964,-8756,10968,-291,145,-142,861,-440,160
358100,453532015508092,28,3,3,3,3,1508,-673,284,648,-233,116,598,491,77,5991,5951,-8706,11015,-291,145,-142,860,-440,168
358100,453532030785229,28,3,3,3,3,1285,-590,269,427,-149,93,620,557,157,5987,5930,-8656,11068,-291,145,-142,858,-440,176
358110,453532030785229,28,3,3,3,3,1079,-508,251,223,-67,66,653,613,224,5981,5904,-8604,11126,-291,145,-142,855,-441,185
358120,453532079606535,28,3,3,3,3,747,-332,185,-105,110,-8,644,609,268,5979,5870,-8557,11181,-280,139,-168,853,-442,193
358130,453532079606535,28,3,3,3,3,619,-265,146,-231,178,-55,602,538,290,5967,5843,-8512,11236,-280,139,-168,850,-443,201
358150,453532086223880,28,3,3,3,3,494,-209,114,-354,235,-94,572,470,297,5952,5819,-8471,11287,-280,139,-168,848,-445,208
358160,453532086223880,28,3,3,3,3,371,-166,79,-474,280,-135,542,394,289,5935,5799,-8434,11334,-280,139,-168,845,-446,215
358170,453532093001224,28,3,3,3,3,143,-107,9,-700,340,-211,477,274,245,5917,5786,-8403,11372,-280,139,-168,844,-448,220
358180,453532093001224,28,3,3,3,3,73,-60,-23,-769,387,-246,366,128,154,5915,5774,-8387,11391,-268,139,-180,843,-448,223
358180,453532119549717,28,3,3,3,3,26,-2,-56,-816,446,-280,236,0,35,5905,5780,-8374,11403,-268,139,-180,842,-448,224
358190,453532119549717,28,3,3,3,3,26,-2,-56,-816,446,-280,236,0,35,5905,5780,-8374,11403,-268,139,-180,842,-448,224
358200,453532124596592,28,3,3,3,3,17,43,-80,-826,490,-304,156,-96,-46,5898,5793,-8366,11406,-268,139,-180,843,-447,224
358200,453532124596592,28,3,3,3,3,-7,63,-88,-851,509,-311,116,-174,-58,5890,5811,-8363,11404,-268,139,-180,844,-446,223
358220,453532150603834,28,3,3,3,3,-32,69,-75,-877,515,-296,91,-250,-38,5878,5831,-8364,11399,-268,139,-180,844,-446,221
358230,453532150603834,28,3,3,3,3,-57,82,-57,-903,528,-276,64,-293,-14,5875,5844,-8375,11386,-273,145,-168,845,-445,218
358240,453532164031700,28,3,3,3,3,-67,96,-28,-914,542,-244,30,-336,21,5857,5864,-8384,11377,-273,145,-168,846,-445,215
358250,453532164031700,28,3,3,3,3,-43,97,15,-890,544,-197,0,-368,60,5837,5884,-8398,11367,-273,145,-168,846,-446,212
358260,453532180744566,28,3,3,3,3,-33,99,28,-881,547,-180,-24,-381,84,5815,5903,-8414,11357,-273,145,-168,847,-447,208
358270,453532180744566,28,3,3,3,3,6,74,33,-841,522,-170,-44,-386,89,5793,5922,-8432,11345,-273,145,-168,847,-448,204
358270,453532210933111,28,3,3,3,3,81,18,35,-766,468,-165,-61,-382,82,5784,5931,-8457,11326,-268,139,-180,848,-449,201
358280,453532210933111,28,3,3,3,3,125,-5,49,-723,443,-147,-85,-372,50,5766,5949,-8476,11312,-268,139,-180,848,-449,197
358290,453532225176758,28,3,3,3,3,165,-27,58,-683,422,-135,-97,-342,-3,5754,5967,-8493,11296,-268,139,-180,849,-450,193
358310,453532225176758,28,3,3,3,3,204,-56,68,-646,393,-121,-81,-315,-58,5745,5987,-8506,11280,-268,139,-180,850,-449,190
358320,453532241017333,28,3,3,3,3,218,-83,71,-632,364,-115,-53,-288,-107,5740,6008,-8514,11265,-268,139,-180,851,-448,187
358330,453532241017333,28,3,3,3,3,198,-83,70,-654,363,-114,-13,-262,-158,5738,6031,-8518,11251,-280,134,-155,852,-447,184
358340,453532286108223,28,3,3,3,3,172,-85,74,-681,360,-108,23,-213,-188,5739,6054,-8517,11239,-280,134,-155,854,-445,182
358350,453532286108223,28,3,3,3,3,143,-91,77,-711,352,-104,70,-132,-196,5743,6073,-8511,11231,-280,134,-155,855,-443,181
358350,453532301620308,28,3,3,3,3,123,-101,52,-732,340,-129,137,-48,-192,5748,6089,-8497,11230,-280,134,-155,856,-441,182
358360,453532301620308,28,3,3,3,3,147,-117,48,-709,321,-134,212,35,-175,5753,6102,-8477,11236,-280,134,-155,857,-439,183
358380,453532314470101,28,3,3,3,3,200,-134,60,-657,303,-124,227,95,-171,5767,6106,-8459,11240,-268,134,-148,857,-437,185
358390,453532314470101,28,3,3,3,3,285,-154,82,-572,280,-105,192,120,-206,5779,6114,-8436,11247,-268,134,-148,858,-435,187
358400,453532329039321,28,3,3,3,3,591,-169,176,-267,263,-12,94,76,-271,5796,6125,-8419,11245,-268,134,-148,859,-432,188
358410,453532329039321,28,3,3,3,3,776,-158,248,-85,270,60,-86,-56,-357,5818,6142,-8414,11228,-268,134,-148,861,-429,187
358420,453532344214374,28,3,3,3,3,998,-171,278,134,254,94,-293,-277,-406,5840,6169,-8427,11192,-268,134,-148,864,-425,183
358430,453532344214374,28,3,3,3,3,1511,-364,296,644,58,120,-516,-512,-358,5877,6184,-8474,11128,-262,139,-174,866,-423,176
358430,453532359795365,28,3,3,3,3,1793,-650,282,924,-227,115,-709,-627,-149,5881,6206,-8532,11070,-262,139,-174,868,-423,167
358440,453532359795365,28,3,3,3,3,2077,-1057,163,1208,-630,5,-769,-625,188,5867,6210,-8605,11018,-262,139,-174,868,-426,157
358450,453532374150679,28,3,3,3,3,2077,-1057,163,1208,-630,5,-769,-625,188,5867,6210,-8605,11018,-262,139,-174,868,-426,157
358460,453532374150679,28,3,3,3,3,2320,-1424,182,1453,-992,30,-407,-434,458,5832,6202,-8659,10999,-262,139,-174,867,-431,151
358470,453532389348441,28,3,3,3,3,2570,-1986,473,1705,-1549,323,59,-277,539,5785,6195,-8682,11010,-262,139,-174,865,-436,149
358480,453532389348441,28,3,3,3,3,2529,-1875,471,1665,-1435,323,221,-274,378,5757,6189,-8699,11015,-291,145,-148,863,-439,147
358490,453532420595632,28,3,3,3,3,2433,-1725,520,1570,-1284,373,214,-191,193,5729,6198,-8698,11025,-291,145,-148,863,-441,147
358500,453532420595632,28,3,3,3,3,2353,-1619,585,1490,-1177,437,279,-61,91,5711,6206,-8686,11039,-291,145,-148,862,-441,147
358510,453532434990477,28,3,3,3,3,2305,-1418,546,1443,-976,395,318,126,105,5699,6203,-8667,11061,-291,145,-148,862,-442,150
358520,453532434990477,28,3,3,3,3,2295,-1317,560,1434,-874,405,340,263,174,5690,6190,-8644,11092,-291,145,-148,860,-443,154
358520,453532465010532,28,3,3,3,3,2281,-1239,552,1422,-794,392,381,309,252,5690,6160,-8628,11121,-268,139,-142,859,-444,159
358540,453532465010532,28,3,3,3,3,2226,-1149,523,1368,-702,359,421,303,306,5672,6140,-8603,11160,-268,139,-142,857,-447,164
358550,453532481061523,28,3,3,3,3,1943,-958,452,1088,-509,282,495,292,332,5648,6121,-8575,11204,-268,139,-142,855,-449,169
358560,453532481061523,28,3,3,3,3,1725,-874,415,872,-422,239,556,314,347,5623,6103,-8543,11251,-268,139,-142,852,-451,175
358570,453532496401369,28,3,3,3,3,1491,-771,361,641,-318,179,639,342,348,5596,6085,-8505,11303,-268,139,-142,850,-453,181
358580,453532496401369,28,3,3,3,3,1066,-514,253,218,-59,65,695,357,313,5591,6054,-8473,11346,-273,145,-174,848,-455,188
358590,453532509633922,28,3,3,3,3,897,-386,174,51,69,-20,669,356,278,5568,6039,-8430,11397,-273,145,-174,845,-456,194
358600,453532509633922,28,3,3,3,3,746,-268,91,-97,188,-108,604,316,251,5547,6026,-8391,11443,-273,145,-174,843,-457,200
358600,453532540888196,28,3,3,3,3,633,-179,47,-209,278,-158,497,269,225,5529,6014,-8359,11482,-273,145,-174,842,-458,205
358620,453532540888196,28,3,3,3,3,451,-34,-17,-389,424,-227,355,236,192,5516,6001,-8336,11511,-273,145,-174,840,-459,209
358630,453532555500281,28,3,3,3,3,365,32,-45,-473,492,-257,223,212,148,5523,5978,-8327,11526,-262,139,-155,839,-460,212
358640,453532555500281,28,3,3,3,3,285,74,-64,-552,535,-279,110,165,114,5519,5965,-8319,11540,-262,139,-155,838,-460,214
358650,453532571252730,28,3,3,3,3,213,102,-87,-624,564,-303,2,149,99,5520,5952,-8318,11548,-262,139,-155,837,-461,216
358660,453532571252730,28,3,3,3,3,89,124,-81,-747,587,-299,-65,163,92,5523,5935,-8320,11553,-262,139,-155,836,-462,217
358670,453532599283879,28,3,3,3,3,70,88,-83,-765,552,-302,-84,193,98,5529,5916,-8323,11558,-262,139,-155,835,-463,218
358680,453532599283879,28,3,3,3,3,67,19,-96,-767,485,-316,-60,236,118,5548,5884,-8331,11560,-273,145,-174,834,-465,220
358680,453532614509453,28,3,3,3,3,64,-51,-92,-769,414,-315,-26,248,146,5551,5861,-8329,11571,-273,145,-174,833,-466,222
358700,453532614509453,28,3,3,3,3,67,-102,-73,-765,365,-298,7,256,125,5555,5839,-8326,11583,-273,145,-174,832,-467,225
358710,453532630466590,28,3,3,3,3,68,-87,-55,-762,380,-282,39,287,60,5563,5819,-8316,11596,-273,145,-174,831,-468,227
358720,453532630466590,28,3,3,3,3,78,-62,-34,-752,405,-265,70,328,-10,5576,5801,-8302,11609,-273,145,-174,830,-467,231
358720,453532647178050,28,3,3,3,3,78,-62,-34,-752,405,-265,70,328,-10,5576,5801,-8302,11609,-273,145,-174,830,-467,231
358730,453532647178050,28,3,3,3,3,93,-42,1,-735,424,-233,85,362,-67,5604,5777,-8288,11617,-268,139,-187,829,-466,234
358740,453532662529979,28,3,3,3,3,97,-25,37,-732,440,-201,104,392,-108,5625,5760,-8266,11631,-268,139,-187,829,-465,238
358750,453532662529979,28,3,3,3,3,102,-25,57,-726,438,-186,157,438,-147,5649,5744,-8238,11647,-268,139,-187,828,-463,243
358760,453532690340503,28,3,3,3,3,124,-39,72,-704,422,-176,202,480,-164,5675,5727,-8205,11666,-268,139,-187,828,-461,249
358770,453532690340503,28,3,3,3,3,147,-80,77,-679,379,-177,223,505,-146,5700,5709,-8171,11687,-268,139,-187,827,-459,254
358780,453532704702900,28,3,3,3,3,138,-97,79,-688,360,-180,248,542,-106,5723,5687,-8135,11712,-280,139,-180,826,-458,260
358790,453532704702900,28,3,3,3,3,114,-109,78,-710,347,-189,269,568,-75,5745,5662,-8098,11739,-280,139,-180,825,-456,267
358800,453532720311026,28,3,3,3,3,83,-106,67,-740,348,-205,273,550,-74,5765,5639,-8061,11766,-280,139,-180,824,-455,273
358810,453532720311026,28,3,3,3,3,35,-35,39,-787,418,-240,259,539,-105,5788,5617,-8024,11790,-280,139,-180,823,-453,279
358820,453532751116342,28,3,3,3,3,21,6,8,-800,457,-277,236,543,-148,5814,5596,-7987,11812,-280,139,-180,822,-451,285
358830,453532751116342,28,3,3,3,3,34,61,-10,-787,510,-301,210,547,-193,5845,5575,-7951,11831,-268,128,-225,821,-449,291
358840,453532764767229,28,3,3,3,3,73,118,23,-747,564,-273,136,515,-209,5876,5555,-7919,11846,-268,128,-225,820,-446,296
358850,453532764767229,28,3,3,3,3,274,128,207,-546,573,-93,-28,412,-191,5907,5536,-7902,11851,-268,128,-225,820,-445,300
358860,453532780770043,28,3,3,3,3,434,73,280,-385,517,-20,-235,214,-141,5933,5521,-7906,11843,-268,128,-225,820,-444,301
358870,453532780770043,28,3,3,3,3,623,-11,344,-197,433,45,-392,-48,-70,5947,5514,-7930,11822,-268,128,-225,820,-445,298
358880,453532811096035,28,3,3,3,3,869,-143,402,47,303,108,-534,-301,12,5951,5516,-7975,11790,-268,128,-225,821,-447,293
358890,453532811096035,28,3,3,3,3,1487,-574,408,664,-124,123,-722,-555,85,5943,5524,-8042,11744,-268,128,-225,823,-450,285
358900,453532825500829,28,3,3,3,3,1742,-904,440,918,-449,165,-929,-660,172,5931,5529,-8128,11689,-268,128,-225,824,-454,274
358910,453532825500829,28,3,3,3,3,1948,-1292,328,1123,-832,64,-997,-624,229,5918,5526,-8218,11633,-268,128,-225,825,-459,264
358920,453532842510518,28,3,3,3,3,2175,-1911,416,1349,-1448,160,-644,-549,190,5901,5532,-8282,11594,-268,128,-225,825,-463,255
358930,453532842510518,28,3,3,3,3,2060,-1668,343,1233,-1205,92,-298,-427,-51,5917,5535,-8324,11554,-257,145,-230,827,-463,250
358940,453532868822291,28,3,3,3,3,1924,-1340,307,1094,-879,61,-262,-318,-312,5930,5561,-8342,11522,-257,145,-230,829,-461,246
358950,453532868822291,28,3,3,3,3,1756,-1138,375,924,-680,131,-94,-126,-392,5952,5584,-8340,11501,-257,145,-230,831,-458,244
358960,453532884426824,28,3,3,3,3,1495,-920,678,661,-466,433,81,-36,-350,5969,5605,-8325,11492,-257,145,-230,833,-454,244
358970,453532884426824,28,3,3,3,3,1431,-942,737,596,-490,492,107,2,-291,5984,5622,-8310,11488,-257,145,-230,835,-451,245
358980,453532899960680,28,3,3,3,3,1403,-973,708,567,-524,461,132,42,-246,5996,5636,-8292,11488,-280,139,-193,836,-449,246
358990,453532899960680,28,3,3,3,3,1399,-993,661,562,-546,413,202,66,-194,6005,5647,-8271,11492,-280,139,-193,837,-446,247
358990,453532914730890,28,3,3,3,3,1399,-993,661,562,-546,413,202,66,-194,6005,5647,-8271,11492,-280,139,-193,837,-446,247
359000,453532914730890,28,3,3,3,3,1318,-938,564,481,-494,313,284,125,-145,6011,5655,-8245,11504,-280,139,-193,837,-444,250
359010,453532930862297,28,3,3,3,3,1219,-863,516,381,-421,261,396,254,-104,6017,5657,-8209,11526,-280,139,-193,837,-442,254
359020,453532930862297,28,3,3,3,3,1086,-784,464,250,-343,203,546,364,-52,6019,5654,-8161,11560,-280,139,-193,836,-440,260
359030,453532960910634,28,3,3,3,3,924,-692,418,89,-253,150,702,438,15,6026,5641,-8108,11600,-268,139,-211,835,-438,267
359040,453532960910634,28,3,3,3,3,622,-480,293,-210,-43,17,808,513,77,6019,5632,-8042,11654,-268,139,-211,833,-437,276
359050,453532975794177,28,3,3,3,3,512,-351,236,-318,84,-49,844,547,112,6010,5619,-7974,11712,-268,139,-211,830,-435,285
359060,453532975794177,28,3,3,3,3,468,-226,208,-359,207,-85,805,531,106,6001,5607,-7908,11766,-268,139,-211,828,-434,294
359070,453532990695428,28,3,3,3,3,421,22,166,-405,454,-135,718,487,85,5995,5595,-7849,11815,-268,139,-211,826,-432,301
359080,453532990695428,28,3,3,3,3,441,94,160,-383,525,-147,628,397,77,6008,5573,-7807,11846,-244,128,-249,825,-431,308
359090,453533021049650,28,3,3,3,3,462,106,163,-361,536,-150,523,278,96,5998,5568,-7767,11880,-244,128,-249,823,-430,313
359100,453533021049650,28,3,3,3,3,459,72,174,-362,502,-142,421,153,135,5983,5566,-7739,11907,-244,128,-249,822,-430,316
359110,453533035508297,28,3,3,3,3,471,-70,205,-350,360,-112,304,67,147,5967,5565,-7722,11927,-244,128,-249,821,-430,318
359120,453533035508297,28,3,3,3,3,483,-139,217,-337,291,-101,194,0,128,5952,5566,-7713,11939,-244,128,-249,820,-430,319
359130,453533065534655,28,3,3,3,3,506,-206,223,-314,224,-96,116,-64,95,5950,5563,-7715,11940,-262,121,-262,820,-431,319
359140,453533065534655,28,3,3,3,3,536,-260,225,-284,171,-93,52,-101,60,5940,5569,-7717,11941,-262,121,-262,820,-431,318
359150,453533079611896,28,3,3,3,3,631,-336,224,-189,95,-93,0,-114,20,5934,5576,-7721,11938,-262,121,-262,821,-431,317
359160,453533079611896,28,3,3,3,3,685,-368,235,-136,62,-81,-58,-102,-10,5932,5581,-7728,11933,-262,121,-262,821,-431,316
359170,453533094278564,28,3,3,3,3,741,-402,248,-80,29,-67,-108,-80,-31,5934,5584,-7736,11925,-262,121,-262,821,-431,315
359180,453533094278564,28,3,3,3,3,795,-433,261,-27,-1,-52,-143,-69,-60,5948,5581,-7750,11910,-262,121,-249,822,-431,314
359190,453533113698722,28,3,3,3,3,901,-463,280,78,-32,-32,-172,-67,-93,5956,5584,-7760,11898,-262,121,-249,823,-431,312
359200,453533113698722,28,3,3,3,3,934,-467,292,110,-35,-18,-200,-72,-134,5968,5587,-7771,11883,-262,121,-249,823,-431,311
359210,453533140835704,28,3,3,3,3,953,-468,301,128,-38,-8,-209,-84,-172,5982,5593,-7782,11866,-262,121,-249,825,-430,309
359220,453533140835704,28,3,3,3,3,962,-475,303,136,-46,-4,-185,-89,-195,5996,5601,-7791,11849,-262,121,-249,826,-429,307
359230,453533156173726,28,3,3,3,3,951,-479,304,123,-51,-2,-149,-98,-204,6013,5609,-7799,11831,-268,121,-249,827,-427,306
359240,453533156173726,28,3,3,3,3,934,-493,316,105,-67,11,-128,-109,-215,6027,5621,-7805,11815,-268,121,-249,828,-426,304
359250,453533169794717,28,3,3,3,3,920,-504,316,89,-80,13,-106,-117,-221,6039,5635,-7809,11800,-268,121,-249,830,-424,303
359260,453533169794717,28,3,3,3,3,885,-503,311,54,-81,9,-77,-116,-223,6051,5649,-7810,11786,-268,121,-249,831,-422,301
359270,453533201288522,28,3,3,3,3,875,-495,322,42,-74,21,-52,-114,-228,6062,5665,-7811,11772,-268,121,-249,833,-420,300
359280,453533201288522,28,3,3,3,3,860,-483,347,25,-64,48,-29,-108,-232,6088,5671,-7816,11753,-268,134,-225,834,-418,299
359290,453533215680347,28,3,3,3,3,850,-481,353,14,-64,54,-5,-85,-231,6099,5686,-7812,11742,-268,134,-225,835,-416,298
359300,453533215680347,28,3,3,3,3,847,-462,329,9,-47,31,19,-73,-218,6109,5701,-7806,11734,-268,134,-225,837,-414,298
359310,453533230302796,28,3,3,3,3,843,-456,330,5,-43,32,25,-72,-193,6118,5714,-7801,11726,-268,134,-225,838,-412,297
359320,453533230302796,28,3,3,3,3,844,-440,327,5,-29,30,33,-54,-153,6124,5726,-7796,11721,-268,134,-225,839,-411,297
359330,453533260323580,28,3,3,3,3,845,-426,325,5,-16,28,48,-30,-97,6124,5735,-7789,11720,-273,105,-249,839,-410,297
359340,453533260323580,28,3,3,3,3,841,-405,312,1,4,14,71,-3,-38,6125,5739,-7783,11722,-273,105,-249,839,-409,297
359350,453533274729050,28,3,3,3,3,828,-400,304,-11,8,6,85,29,14,6122,5740,-7777,11727,-273,105,-249,839,-409,298
359360,453533274729050,28,3,3,3,3,812,-397,304,-26,12,5,89,60,59,6118,5736,-7771,11735,-273,105,-249,839,-409,298
359370,453533321697753,28,3,3,3,3,803,-392,299,-35,18,0,85,83,95,6113,5730,-7766,11744,-273,105,-249,838,-410,300
359380,453533321697753,28,3,3,3,3,778,-386,289,-59,25,-11,71,100,119,6112,5717,-7764,11752,-280,121,-236,837,-411,301
359390,453533328118431,28,3,3,3,3,763,-377,287,-72,34,-14,51,108,131,6107,5706,-7761,11762,-280,121,-236,836,-412,302
359400,453533328118431,28,3,3,3,3,757,-375,281,-78,38,-22,26,108,133,6102,5695,-7760,11771,-280,121,-236,835,-413,303
359410,453533336089265,28,3,3,3,3,762,-373,286,-72,41,-17,1,100,128,6098,5683,-7761,11778,-280,121,-236,834,-414,304
359420,453533336089265,28,3,3,3,3,771,-378,293,-62,37,-11,-27,89,119,6095,5671,-7763,11784,-280,121,-236,833,-415,305
359430,453533364196872,28,3,3,3,3,778,-382,297,-55,34,-7,-57,65,112,6093,5660,-7768,11787,-268,110,-236,833,-417,305
359440,453533364196872,28,3,3,3,3,783,-391,302,-49,26,-3,-78,40,98,6091,5650,-7775,11788,-268,110,-236,832,-418,305
359450,453533381071196,28,3,3,3,3,786,-412,300,-45,6,-4,-99,12,85,6089,5642,-7784,11787,-268,110,-236,832,-419,305
359460,453533381071196,28,3,3,3,3,788,-421,298,-43,0,-6,-114,-9,73,6087,5636,-7793,11785,-268,110,-236,831,-420,304
359470,453533409337397,28,3,3,3,3,794,-430,299,-36,-8,-4,-122,-25,56,6086,5631,-7804,11781,-268,110,-236,831,-421,304
359480,453533409337397,28,3,3,3,3,797,-429,304,-33,-7,1,-136,-37,47,6101,5617,-7822,11768,-273,128,-256,831,-422,303
359490,453533415034273,28,3,3,3,3,801,-426,315,-30,-3,13,-149,-49,33,6101,5614,-7835,11761,-273,128,-256,831,-423,301
359500,453533415034273,28,3,3,3,3,806,-423,316,-24,0,15,-159,-53,24,6102,5611,-7847,11753,-273,128,-256,831,-423,300
359510,453533440742296,28,3,3,3,3,816,-427,321,-14,-3,22,-162,-61,19,6103,5608,-7860,11745,-273,128,-256,831,-424,299
359520,453533440742296,28,3,3,3,3,824,-436,319,-7,-11,21,-159,-57,13,6104,5605,-7872,11738,-273,128,-256,831,-425,298
359530,453533455493600,28,3,3,3,3,836,-448,317,4,-23,20,-144,-51,6,6107,5603,-7883,11731,-273,116,-236,831,-425,297
359540,453533455493600,28,3,3,3,3,840,-453,316,8,-27,20,-125,-47,7,6108,5602,-7893,11724,-273,116,-236,832,-426,296
359550,453533469831830,28,3,3,3,3,839,-452,309,7,-26,14,-105,-37,4,6110,5601,-7901,11718,-273,116,-236,832,-426,295
359560,453533469831830,28,3,3,3,3,828,-447,306,-3,-21,11,-77,-27,7,6111,5600,-7907,11714,-273,116,-236,832,-426,294
359570,453533498912562,28,3,3,3,3,825,-442,302,-6,-15,7,-50,-20,8,6112,5599,-7910,11711,-273,116,-236,832,-426,294
359580,453533498912562,28,3,3,3,3,820,-435,305,-12,-8,11,-33,-10,7,6129,5586,-7921,11701,-268,134,-249,832,-427,294
359590,453533529710847,28,3,3,3,3,814,-424,306,-18,2,12,-20,-3,6,6130,5585,-7922,11701,-268,134,-249,832,-427,294
359600,453533529710847,28,3,3,3,3,814,-412,302,-18,14,8,-11,2,7,6130,5584,-7923,11701,-268,134,-249,832,-427,294
359610,453533536694389,28,3,3,3,3,819,-411,305,-12,15,10,-8,13,8,6131,5583,-7922,11701,-268,134,-249,832,-427,294
359620,453533536694389,28,3,3,3,3,824,-411,309,-7,16,14,0,20,7,6132,5582,-7922,11702,-268,134,-249,832,-427,294
359630,453533593629707,28,3,3,3,3,833,-416,307,1,10,13,2,22,1,6153,5566,-7930,11692,-257,134,-236,832,-427,294
359640,453533593629707,28,3,3,3,3,838,-426,304,6,0,9,8,20,-9,6154,5565,-7929,11692,-257,134,-236,832,-427,294
359650,453533600908875,28,3,3,3,3,832,-428,301,0,-1,6,15,15,-9,6155,5565,-7927,11693,-257,134,-236,832,-427,295
359660,453533600908875,28,3,3,3,3,828,-433,304,-3,-6,9,24,9,-8,6155,5565,-7925,11695,-257,134,-236,831,-426,295
359670,453533607272052,28,3,3,3,3,821,-435,304,-10,-8,8,32,8,-2,6154,5566,-7923,11696,-257,134,-236,831,-426,295
359680,453533607272052,28,3,3,3,3,807,-442,311,-24,-15,15,43,9,8,6153,5566,-7920,11699,-280,123,-236,831,-426,296
359690,453533619832522,28,3,3,3,3,803,-438,315,-28,-11,19,51,7,16,6150,5565,-7917,11703,-280,123,-236,831,-426,296
359700,453533619832522,28,3,3,3,3,798,-433,317,-33,-6,21,56,10,22,6147,5565,-7914,11707,-280,123,-236,831,-426,296
359710,453533633827472,28,3,3,3,3,792,-428,319,-38,-1,22,53,5,25,6144,5566,-7911,11710,-280,123,-236,831,-427,297
359720,453533633827472,28,3,3,3,3,791,-424,317,-40,2,20,49,2,19,6141,5567,-7908,11713,-280,123,-236,831,-427,297
359730,453533667551798,28,3,3,3,3,789,-427,311,-41,0,14,44,-5,20,6140,5566,-7907,11715,-280,129,-230,831,-427,297
359740,453533667551798,28,3,3,3,3,790,-428,300,-40,0,2,45,-24,19,6136,5566,-7905,11718,-280,129,-230,830,-427,297
359750,453533678627945,28,3,3,3,3,779,-438,308,-51,-11,10,47,-47,22,6130,5567,-7904,11722,-280,129,-230,830,-427,297
359760,453533678627945,28,3,3,3,3,770,-441,307,-59,-13,10,39,-55,25,6124,5567,-7904,11725,-280,129,-230,830,-428,297
359770,453533693661800,28,3,3,3,3,763,-438,297,-66,-10,0,34,-54,29,6117,5566,-7905,11728,-280,129,-230,830,-428,297
359780,453533693661800,28,3,3,3,3,758,-430,289,-72,-1,-7,36,-81,39,6114,5568,-7908,11726,-262,123,-225,830,-428,297
359790,453533726048991,28,3,3,3,3,752,-411,294,-78,17,-1,39,-100,43,6106,5573,-7911,11726,-262,123,-225,830,-429,296
359800,453533726048991,28,3,3,3,3,754,-399,294,-76,29,0,32,-112,44,6097,5580,-7914,11726,-262,123,-225,830,-429,295
359810,453533741492847,28,3,3,3,3,749,-393,290,-80,36,-3,15,-131,40,6089,5587,-7918,11724,-262,123,-225,830,-429,294
359820,453533741492847,28,3,3,3,3,746,-381,288,-84,48,-4,-3,-151,29,6080,5595,-7924,11721,-262,123,-225,831,-430,293
359830,453533755551338,28,3,3,3,3,726,-359,263,-104,70,-28,-17,-181,13,6083,5598,-7937,11709,-268,129,-249,831,-430,291
359840,453533755551338,28,3,3,3,3,707,-351,248,-125,78,-40,-26,-207,-3,6075,5610,-7946,11701,-268,129,-249,832,-430,289
359850,453533784928685,28,3,3,3,3,683,-339,237,-149,90,-50,-36,-233,-11,6067,5624,-7955,11692,-268,129,-249,833,-430,287
359850,453533784928685,28,3,3,3,3,683,-339,237,-149,90,-50,-36,-233,-11,6067,5624,-7955,11692,-268,129,-249,833,-430,287
359860,453533791160456,28,3,3,3,3,660,-332,220,-173,98,-64,-26,-244,-9,6058,5639,-7965,11683,-268,129,-249,833,-430,284
359870,453533791160456,28,3,3,3,3,627,-319,188,-206,111,-94,-37,-259,-1,6047,5654,-7976,11674,-268,129,-249,834,-430,282
359880,453533833969158,28,3,3,3,3,617,-309,196,-218,121,-83,-70,-292,0,6043,5667,-7992,11659,-257,118,-249,835,-430,279
359890,453533833969158,28,3,3,3,3,622,-295,202,-213,135,-73,-121,-323,-9,6033,5684,-8010,11643,-257,118,-249,836,-430,275
359900,453533840738013,28,3,3,3,3,630,-272,197,-207,159,-74,-164,-368,-25,6023,5703,-8032,11624,-257,118,-249,837,-431,271
359910,453533840738013,28,3,3,3,3,633,-260,191,-205,170,-76,-190,-409,-55,6015,5725,-8056,11601,-257,118,-249,839,-431,267
359920,453533847740774,28,3,3,3,3,635,-257,193,-205,173,-68,-220,-444,-94,6008,5750,-8081,11575,-257,118,-249,841,-431,261
359930,453533847740774,28,3,3,3,3,638,-260,191,-204,170,-64,-238,-487,-132,6006,5776,-8110,11543,-268,123,-230,843,-430,256
359940,453533860359786,28,3,3,3,3,642,-287,174,-202,142,-75,-254,-490,-148,6001,5805,-8137,11511,-268,123,-230,845,-429,250
359950,453533860359786,28,3,3,3,3,631,-306,155,-215,122,-89,-267,-465,-140,5998,5832,-8164,11480,-268,123,-230,846,-429,245
359960,453533906264374,28,3,3,3,3,614,-327,150,-234,101,-88,-260,-456,-108,5993,5857,-8192,11450,-268,123,-230,848,-428,239
359970,453533906264374,28,3,3,3,3,602,-346,148,-247,82,-86,-249,-439,-71,5985,5879,-8220,11423,-268,123,-230,850,-428,234
359980,453533913537656,28,3,3,3,3,597,-353,167,-253,76,-62,-245,-427,-49,5986,5893,-8252,11392,-273,129,-217,851,-429,229
359990,453533913537656,28,3,3,3,3,618,-346,203,-234,82,-20,-282,-431,-61,5980,5914,-8282,11363,-273,129,-217,852,-429,224
360000,453533921425209,28,3,3,3,3,655,-328,261,-199,100,43,-342,-450,-101,5977,5935,-8314,11330,-273,129,-217,854,-429,218
360010,453533921425209,28,3,3,3,3,698,-309,323,-158,119,111,-403,-500,-144,5976,5959,-8350,11291,-273,129,-217,856,-428,211
360020,453533951206722,28,3,3,3,3,800,-335,370,-57,92,165,-448,-556,-167,5975,5986,-8391,11247,-273,129,-217,858,-428,204
360030,453533951206722,28,3,3,3,3,849,-380,359,-11,46,162,-453,-593,-160,5984,6007,-8438,11196,-280,136,-193,860,-427,196
360040,453533964104119,28,3,3,3,3,903,-435,307,40,-8,118,-434,-600,-133,5978,6036,-8480,11152,-280,136,-193,862,-427,189
360050,453533964104119,28,3,3,3,3,1048,-544,163,185,-117,-18,-366,-547,-77,5970,6060,-8517,11114,-280,136,-193,863,-427,182
360060,453533980401985,28,3,3,3,3,1150,-613,153,286,-185,-23,-243,-427,4,5958,6078,-8546,11089,-280,136,-193,864,-427,177
360070,453533980401985,28,3,3,3,3,1273,-689,170,409,-260,-2,-146,-293,64,5945,6088,-8566,11075,-280,136,-193,864,-428,173
360080,453534010196676,28,3,3,3,3,1414,-781,225,549,-352,54,-142,-193,72,5953,6079,-8592,11055,-268,136,-180,864,-429,171
360090,453534010196676,28,3,3,3,3,1753,-974,311,888,-543,142,-237,-128,42,5952,6077,-8612,11041,-268,136,-180,864,-430,168
360100,453534025226052,28,3,3,3,3,1910,-1083,281,1045,-651,114,-368,-47,17,5961,6067,-8636,11023,-268,136,-180,864,-431,166
360110,453534025226052,28,3,3,3,3,2084,-1209,275,1219,-777,109,-290,90,32,5973,6051,-8652,11013,-268,136,-180,864,-432,166
360120,453534039201939,28,3,3,3,3,2249,-1301,335,1385,-868,166,-32,237,68,5981,6032,-8648,11022,-268,136,-180,863,-432,168
360130,453534039201939,28,3,3,3,3,2322,-1212,431,1459,-779,259,187,321,106,6010,5993,-8644,11031,-262,147,-161,862,-433,172
360130,453534055012149,28,3,3,3,3,2322,-1212,431,1459,-779,259,187,321,106,6010,5993,-8644,11031,-262,147,-161,862,-433,172
360140,453534055012149,28,3,3,3,3,2279,-1152,493,1418,-718,315,413,357,170,6003,5977,-8613,11067,-262,147,-161,861,-434,177
360150,453534069142775,28,3,3,3,3,2174,-1118,542,1315,-682,358,622,375,299,5982,5960,-8573,11118,-262,147,-161,858,-435,184
360160,453534069142775,28,3,3,3,3,2047,-1100,529,1191,-661,337,702,409,402,5954,5940,-8530,11178,-262,147,-161,856,-438,191
360170,453534100531789,28,3,3,3,3,1803,-929,530,950,-488,331,666,490,417,5930,5912,-8487,11238,-262,147,-161,853,-440,199
360180,453534100531789,28,3,3,3,3,1671,-798,513,821,-355,306,620,575,368,5933,5865,-8452,11287,-257,136,-187,850,-442,207
360190,453534114601009,28,3,3,3,3,1526,-669,454,679,-224,238,631,640,310,5923,5831,-8403,11346,-257,136,-187,847,-444,216
360200,453534114601009,28,3,3,3,3,1358,-559,383,513,-114,157,681,624,281,5913,5802,-8349,11407,-257,136,-187,844,-445,225
360210,453534130500073,28,3,3,3,3,974,-403,249,132,42,16,699,548,262,5899,5778,-8296,11464,-257,136,-187,841,-445,233
360220,453534130500073,28,3,3,3,3,795,-347,181,-43,99,-59,660,451,245,5883,5760,-8248,11516,-257,136,-187,839,-446,241
360230,453534160910493,28,3,3,3,3,622,-289,123,-214,156,-123,569,348,213,5881,5737,-8214,11552,-268,136,-211,837,-446,247
360240,453534160910493,28,3,3,3,3,341,-180,-13,-494,266,-265,458,235,158,5868,5729,-8183,11585,-268,136,-211,835,-447,251
360250,453534175697994,28,3,3,3,3,248,-117,-49,-586,329,-304,357,152,84,5858,5727,-8158,11609,-268,136,-211,834,-446,254
360260,453534175697994,28,3,3,3,3,143,-51,-54,-691,394,-311,263,109,21,5853,5728,-8138,11625,-268,136,-211,834,-446,257
360270,453534190687006,28,3,3,3,3,61,11,-66,-773,456,-324,135,59,-40,5854,5730,-8127,11631,-268,136,-211,834,-445,258
360280,453534190687006,28,3,3,3,3,-29,86,-100,-864,531,-358,7,22,-89,5871,5725,-8128,11624,-268,136,-206,834,-444,258
360290,453534219808884,28,3,3,3,3,-51,117,-113,-887,561,-370,-87,-9,-116,5881,5728,-8131,11616,-268,136,-206,835,-443,257
360300,453534219808884,28,3,3,3,3,-64,124,-115,-900,568,-371,-169,-56,-130,5892,5732,-8139,11602,-268,136,-206,836,-443,256
360310,453534233591385,28,3,3,3,3,-74,121,-113,-911,564,-368,-234,-116,-120,5902,5738,-8154,11584,-268,136,-206,837,-442,254
360320,453534233591385,28,3,3,3,3,-93,105,-76,-932,547,-327,-254,-176,-97,5908,5745,-8173,11564,-268,136,-206,838,-442,251
360330,453534267551701,28,3,3,3,3,-94,86,-48,-933,529,-297,-244,-215,-72,5906,5757,-8190,11547,-280,123,-200,839,-442,248
360340,453534267551701,28,3,3,3,3,-93,70,-24,-933,513,-270,-226,-223,-51,5906,5767,-8210,11528,-280,123,-200,840,-442,245
360350,453534279994828,28,3,3,3,3,-69,62,-21,-910,504,-263,-217,-199,-41,5907,5774,-8229,11511,-280,123,-200,840,-442,242
360360,453534279994828,28,3,3,3,3,-13,26,0,-854,469,-238,-218,-198,-48,5908,5782,-8247,11493,-280,123,-200,841,-443,239
360370,453534294436235,28,3,3,3,3,24,10,4,-817,453,-232,-230,-195,-74,5911,5790,-8266,11474,-280,123,-200,842,-442,236
360380,453534294436235,28,3,3,3,3,88,-21,5,-754,420,-228,-227,-193,-110,5906,5807,-8278,11459,-297,129,-187,843,-442,233
360390,453534310030976,28,3,3,3,3,207,-87,14,-637,353,-216,-218,-163,-142,5915,5816,-8292,11439,-297,129,-187,844,-441,231
360390,453534310030976,28,3,3,3,3,207,-87,14,-637,353,-216,-218,-163,-142,5915,5816,-8292,11439,-297,129,-187,844,-441,231
360400,453534323549936,28,3,3,3,3,254,-126,11,-591,314,-217,-218,-130,-166,5926,5825,-8305,11420,-297,129,-187,845,-440,228
360410,453534323549936,28,3,3,3,3,276,-150,12,-570,289,-214,-190,-111,-178,5938,5834,-8314,11402,-297,129,-187,846,-439,226
360420,453534354636241,28,3,3,3,3,266,-154,17,-581,283,-207,-146,-91,-198,5951,5844,-8320,11386,-297,129,-187,847,-438,225
360430,453534354636241,28,3,3,3,3,197,-122,31,-651,313,-192,-95,-59,-216,5951,5865,-8314,11380,-308,129,-187,849,-436,224
360440,453534370514732,28,3,3,3,3,168,-86,25,-682,347,-198,-40,-3,-229,5966,5874,-8309,11371,-308,129,-187,850,-434,224
360450,453534370514732,28,3,3,3,3,153,-53,13,-697,378,-210,23,62,-219,5982,5881,-8299,11367,-308,129,-187,851,-432,224
360460,453534386606661,28,3,3,3,3,165,-29,2,-686,400,-224,66,139,-194,5998,5883,-8284,11368,-308,129,-187,851,-430,226
360470,453534386606661,28,3,3,3,3,295,-12,6,-556,415,-222,51,214,-172,6017,5880,-8268,11371,-308,129,-187,851,-428,228
360480,453534415497497,28,3,3,3,3,414,-10,61,-437,416,-168,-29,244,-173,6055,5861,-8264,11364,-262,136,-180,852,-426,230
360490,453534415497497,28,3,3,3,3,592,-24,144,-260,401,-87,-217,187,-183,6082,5850,-8265,11354,-262,136,-180,852,-425,231
360500,453534430486822,28,3,3,3,3,807,-66,226,-46,358,-1,-533,-10,-215,6111,5843,-8292,11322,-262,136,-180,853,-425,228
360510,453534430486822,28,3,3,3,3,1240,-228,268,385,196,45,-810,-292,-213,6137,5844,-8345,11269,-262,136,-180,855,-425,222
360520,453534444811302,28,3,3,3,3,1408,-384,205,552,41,-8,-959,-347,-107,6159,5838,-8412,11210,-262,136,-180,856,-426,214
360530,453534444811302,28,3,3,3,3,1575,-665,166,718,-235,-42,-929,-157,112,6184,5804,-8482,11161,-273,129,-211,856,-429,208
360540,453534461766617,28,3,3,3,3,1841,-1240,220,986,-806,14,-673,42,355,6186,5762,-8533,11143,-273,129,-211,854,-434,206
360550,453534461766617,28,3,3,3,3,1896,-1440,333,1044,-999,129,-415,70,577,6167,5717,-8574,11145,-273,129,-211,851,-440,204
360560,453534489821151,28,3,3,3,3,1974,-1565,476,1126,-1117,273,-329,1,698,6135,5674,-8616,11153,-273,129,-211,848,-447,203
360570,453534489821151,28,3,3,3,3,1992,-1553,635,1147,-1098,435,-410,-52,647,6106,5633,-8662,11153,-273,129,-211,845,-454,200
360580,453534504761621,28,3,3,3,3,2221,-1431,740,1377,-972,542,-436,-45,407,6109,5589,-8711,11135,-257,136,-187,843,-459,197
360590,453534504761621,28,3,3,3,3,2414,-1461,767,1571,-999,571,-362,42,130,6114,5568,-8736,11124,-257,136,-187,842,-461,196
360600,453534550598188,28,3,3,3,3,2547,-1487,724,1704,-1026,528,-253,120,-61,6131,5555,-8745,11113,-257,136,-187,842,-461,196
360610,453534550598188,28,3,3,3,3,2603,-1482,690,1760,-1022,494,-265,160,-142,6155,5544,-8752,11101,-257,136,-187,843,-460,196
360620,453534557120584,28,3,3,3,3,2467,-1421,688,1623,-962,491,-266,186,-178,6183,5532,-8756,11087,-257,136,-187,843,-459,196
360630,453534557120584,28,3,3,3,3,2247,-1362,661,1403,-904,463,-162,229,-165,6220,5512,-8759,11075,-262,147,-180,844,-458,198
360640,453534564743346,28,3,3,3,3,1986,-1292,603,1142,-835,402,18,310,-102,6240,5498,-8744,11082,-262,147,-180,843,-457,201
360650,453534564743346,28,3,3,3,3,1986,-1292,603,1142,-835,402,18,310,-102,6240,5498,-8744,11082,-262,147,-180,843,-457,201
360650,453534579737878,28,3,3,3,3,1725,-1193,527,882,-737,321,197,440,-12,6256,5479,-8717,11104,-262,147,-180,842,-456,206
360660,453534579737878,28,3,3,3,3,1201,-915,380,360,-458,167,354,517,71,6266,5456,-8680,11138,-262,147,-180,841,-456,212
360670,453534594496213,28,3,3,3,3,983,-750,306,144,-293,86,511,532,118,6268,5436,-8634,11182,-262,147,-180,839,-456,220
360680,453534594496213,28,3,3,3,3,786,-578,241,-51,-122,14,599,513,137,6282,5406,-8592,11222,-262,153,-193,837,-456,227
360690,453534639972363,28,3,3,3,3,639,-432,167,-196,23,-68,619,490,130,6278,5391,-8541,11270,-262,153,-193,835,-455,235
360700,453534639972363,28,3,3,3,3,395,-178,31,-438,277,-211,599,445,101,6275,5379,-8492,11314,-262,153,-193,834,-455,242
360710,453534646569916,28,3,3,3,3,298,-98,-17,-533,355,-265,530,404,67,6274,5369,-8447,11353,-262,153,-193,832,-454,248
360720,453534646569916,28,3,3,3,3,215,-31,-56,-616,422,-310,446,348,21,6275,5362,-8408,11385,-262,153,-193,831,-453,254
360730,453534655295021,28,3,3,3,3,57,71,-95,-772,523,-353,363,276,-29,6281,5356,-8377,11407,-273,147,-200,830,-452,258
360740,453534655295021,28,3,3,3,3,-3,105,-94,-834,555,-356,268,221,-87,6289,5356,-8350,11423,-273,147,-200,830,-450,261
360750,453534685741899,28,3,3,3,3,-55,134,-108,-886,584,-373,153,211,-133,6302,5354,-8329,11431,-273,147,-200,830,-449,264
360760,453534685741899,28,3,3,3,3,-97,153,-102,-928,600,-369,44,189,-157,6319,5351,-8316,11433,-273,147,-200,830,-447,266
360770,453534700712995,28,3,3,3,3,-125,177,-93,-956,623,-361,-33,177,-163,6339,5346,-8307,11431,-273,147,-200,831,-446,267
360780,453534700712995,28,3,3,3,3,-124,174,-86,-955,619,-354,-93,172,-145,6360,5337,-8303,11426,-268,140,-217,831,-445,268
360790,453534714998204,28,3,3,3,3,-94,165,-83,-926,610,-353,-135,127,-118,6377,5330,-8304,11420,-268,140,-217,831,-444,269
360800,453534714998204,28,3,3,3,3,-54,155,-72,-886,599,-341,-176,67,-112,6392,5325,-8309,11410,-268,140,-217,831,-444,269
360810,453534745954145,28,3,3,3,3,6,144,-35,-825,588,-303,-213,20,-143,6408,5323,-8318,11396,-268,140,-217,832,-443,268
360820,453534745954145,28,3,3,3,3,29,125,-20,-803,567,-287,-241,-45,-188,6424,5326,-8329,11377,-268,140,-217,833,-442,266
360830,453534759062115,28,3,3,3,3,48,98,-4,-786,539,-268,-269,-123,-231,6435,5339,-8340,11356,-291,140,-200,835,-441,264
360840,453534759062115,28,3,3,3,3,73,75,10,-763,514,-249,-294,-194,-282,6452,5353,-8357,11327,-291,140,-200,837,-439,260
360850,453534774729408,28,3,3,3,3,113,30,37,-726,467,-219,-330,-243,-333,6471,5372,-8377,11293,-291,140,-200,839,-437,257
360860,453534774729408,28,3,3,3,3,138,10,49,-703,445,-203,-354,-268,-377,6492,5393,-8397,11256,-291,140,-200,841,-434,252
360870,453534805517901,28,3,3,3,3,167,-34,63,-676,397,-185,-366,-268,-394,6515,5415,-8417,11217,-291,140,-200,844,-432,248
360880,453534805517901,28,3,3,3,3,199,-110,71,-647,319,-172,-362,-253,-393,6539,5435,-8437,11178,-286,147,-200,847,-429,244
360890,453534820440767,28,3,3,3,3,204,-151,73,-645,274,-167,-336,-230,-384,6561,5455,-8454,11142,-286,147,-200,849,-426,241
360900,453534820440767,28,3,3,3,3,206,-176,68,-645,247,-169,-277,-182,-358,6583,5473,-8467,11111,-286,147,-200,851,-424,238
360910,453534834509675,28,3,3,3,3,227,-184,77,-625,237,-158,-188,-122,-319,6602,5488,-8473,11087,-286,147,-200,853,-421,236
360920,453534834509675,28,3,3,3,3,227,-184,77,-625,237,-158,-188,-122,-319,6602,5488,-8473,11087,-286,147,-200,853,-421,236
360920,453534850024416,28,3,3,3,3,308,-190,135,-545,229,-100,-126,-38,-251,6620,5498,-8475,11071,-286,147,-200,854,-419,235
360930,453534850024416,28,3,3,3,3,405,-188,213,-450,230,-21,-141,41,-170,6636,5498,-8477,11060,-280,136,-206,855,-418,234
360940,453534865497126,28,3,3,3,3,544,-196,316,-310,221,82,-261,76,-110,6654,5489,-8486,11046,-280,136,-206,855,-418,234
360950,453534865497126,28,3,3,3,3,748,-215,378,-107,203,146,-470,7,-85,6673,5476,-8512,11021,-280,136,-206,855,-418,232
360960,453534909820515,28,3,3,3,3,1294,-401,369,437,17,142,-721,-159,-51,6690,5462,-8560,10981,-280,136,-206,856,-419,227
360970,453534909820515,28,3,3,3,3,1648,-616,293,790,-194,73,-1004,-248,-8,6709,5440,-8629,10926,-280,136,-206,857,-422,220
360980,453534916929943,28,3,3,3,3,1994,-876,125,1137,-451,-87,-1274,-70,19,6749,5391,-8711,10860,-268,136,-206,857,-425,213
360990,453534916929943,28,3,3,3,3,2369,-1193,103,1513,-764,-106,-1174,207,99,6787,5331,-8775,10814,-268,136,-206,856,-429,210
361000,453534924287183,28,3,3,3,3,2920,-1908,619,2065,-1476,410,-708,266,193,6809,5280,-8813,10795,-268,136,-206,854,-432,209
361010,453534924287183,28,3,3,3,3,2915,-2008,818,2060,-1575,610,-348,-55,38,6814,5269,-8837,10778,-268,136,-206,854,-433,207
361020,453534971233959,28,3,3,3,3,2780,-1857,912,1923,-1425,709,-336,-289,-246,6824,5285,-8860,10744,-268,136,-206,856,-432,203
361030,453534971233959,28,3,3,3,3,2513,-1601,701,1654,-1173,502,-320,-293,-455,6865,5296,-8886,10691,-262,153,-200,859,-428,198
361040,453534984737450,28,3,3,3,3,2432,-1450,788,1570,-1025,591,-139,-121,-448,6889,5320,-8886,10664,-262,153,-200,861,-424,196
361050,453534984737450,28,3,3,3,3,2341,-1346,835,1477,-925,636,108,128,-354,6912,5334,-8864,10660,-262,153,-200,863,-421,198
361060,453534995641670,28,3,3,3,3,2200,-1201,761,1337,-783,558,306,328,-276,6935,5339,-8826,10674,-262,153,-200,863,-417,203
361070,453534995641670,28,3,3,3,3,1770,-894,543,906,-479,334,439,408,-224,6955,5343,-8779,10698,-262,153,-200,863,-414,209
361080,453535015083963,28,3,3,3,3,1504,-753,453,640,-342,238,558,411,-183,6970,5348,-8726,10729,-291,153,-193,863,-411,215
361090,453535015083963,28,3,3,3,3,1266,-617,354,402,-208,131,623,437,-133,6981,5352,-8669,10766,-291,153,-193,863,-408,222
361100,453535029468704,28,3,3,3,3,1009,-495,267,147,-89,37,643,460,-78,6988,5353,-8611,10807,-291,153,-193,862,-406,229
361110,453535029468704,28,3,3,3,3,586,-265,101,-274,139,-134,629,460,-52,6994,5352,-8555,10848,-291,153,-193,861,-404,236
361120,453535044955477,28,3,3,3,3,425,-156,28,-435,245,-214,632,439,-58,7000,5352,-8499,10888,-291,153,-193,860,-402,243
361130,453535044955477,28,3,3,3,3,286,-62,-37,-572,337,-287,650,385,-77,7004,5357,-8444,10926,-280,140,-217,859,-399,250
361140,453535077957720,28,3,3,3,3,193,12,-86,-665,410,-341,652,252,-91,7002,5371,-8393,10960,-280,140,-217,859,-397,255
361150,453535077957720,28,3,3,3,3,62,126,-107,-797,521,-366,629,122,-119,6996,5393,-8347,10988,-280,140,-217,859,-394,259
361160,453535089602617,28,3,3,3,3,23,171,-106,-837,563,-368,579,32,-155,6989,5420,-8306,11009,-280,140,-217,860,-391,261
361170,453535089602617,28,3,3,3,3,-10,202,-100,-871,590,-364,489,-35,-183,6984,5449,-8273,11024,-280,140,-217,861,-388,263
361180,453535118973557,28,3,3,3,3,-44,221,-98,-907,606,-363,408,-77,-190,6975,5482,-8243,11035,-280,123,-225,862,-385,264
361190,453535118973557,28,3,3,3,3,-73,210,-61,-936,593,-326,338,-106,-164,6970,5508,-8222,11041,-280,123,-225,863,-382,265
361200,453535127056631,28,3,3,3,3,-77,180,-33,-941,561,-298,250,-140,-132,6964,5532,-8208,11043,-280,123,-225,864,-380,264
361210,453535127056631,28,3,3,3,3,-67,151,0,-933,530,-263,153,-173,-114,6959,5554,-8202,11040,-280,123,-225,865,-379,263
361210,453535134621579,28,3,3,3,3,-67,151,0,-933,530,-263,153,-173,-114,6959,5554,-8202,11040,-280,123,-225,865,-379,263
361220,453535134621579,28,3,3,3,3,-32,86,21,-898,465,-240,52,-205,-108,6954,5573,-8204,11032,-280,123,-225,866,-378,262
361230,453535164844291,28,3,3,3,3,-11,52,22,-878,429,-236,-44,-244,-101,6951,5591,-8212,11019,-286,123,-217,867,-377,259
361240,453535164844291,28,3,3,3,3,6,18,43,-861,394,-212,-108,-273,-95,6948,5607,-8226,11002,-286,123,-217,868,-376,256
361250,453535180881636,28,3,3,3,3,37,-12,62,-832,364,-190,-156,-275,-99,6946,5622,-8243,10983,-286,123,-217,869,-376,253
361260,453535180881636,28,3,3,3,3,118,-73,51,-751,302,-198,-183,-262,-113,6947,5636,-8261,10962,-286,123,-217,870,-375,249
361270,453535195286533,28,3,3,3,3,157,-93,48,-714,281,-197,-201,-251,-128,6949,5649,-8278,10941,-286,123,-217,871,-374,246
361280,453535195286533,28,3,3,3,3,187,-99,53,-685,274,-189,-216,-239,-133,6953,5662,-8296,10919,-297,123,-225,873,-374,243
361290,453535225645599,28,3,3,3,3,207,-93,43,-666,280,-197,-222,-216,-130,6958,5672,-8313,10897,-297,123,-225,874,-373,240
361300,453535225645599,28,3,3,3,3,216,-60,23,-658,311,-214,-211,-188,-126,6963,5681,-8329,10877,-297,123,-225,875,-372,237
361310,453535239997371,28,3,3,3,3,225,-51,27,-650,320,-208,-168,-146,-113,6968,5688,-8341,10860,-297,123,-225,876,-372,235
361320,453535239997371,28,3,3,3,3,235,-45,26,-641,326,-207,-114,-126,-79,6971,5695,-8350,10848,-297,123,-225,876,-371,234
361330,453535255863102,28,3,3,3,3,251,-53,17,-625,318,-215,-67,-115,-16,6970,5700,-8358,10840,-291,123,-217,877,-371,232
361340,453535255863102,28,3,3,3,3,336,-97,91,-540,274,-139,-42,-141,73,6960,5703,-8369,10837,-291,123,-217,877,-372,231
361350,453535284603053,28,3,3,3,3,439,-148,174,-437,225,-54,-102,-208,177,6943,5703,-8388,10832,-291,123,-217,876,-374,228
361360,453535284603053,28,3,3,3,3,601,-205,274,-274,172,49,-255,-303,258,6922,5700,-8423,10821,-291,123,-217,876,-377,224
361370,453535300094565,28,3,3,3,3,1177,-406,440,301,-24,221,-495,-412,312,6900,5691,-8477,10797,-291,123,-217,876,-381,218
361380,453535300094565,28,3,3,3,3,1596,-595,456,719,-208,245,-796,-493,343,6887,5670,-8556,10754,-280,123,-211,876,-386,210
361390,453535317015608,28,3,3,3,3,2129,-884,358,1253,-492,156,-1062,-463,329,6879,5642,-8646,10702,-280,123,-211,875,-392,201
361400,453535317015608,28,3,3,3,3,2786,-1247,103,1911,-850,-91,-1141,-271,265,6886,5602,-8730,10650,-280,123,-211,875,-397,194
361410,453535345930819,28,3,3,3,3,3472,-1608,445,2598,-1208,254,-555,-58,196,6889,5576,-8771,10629,-280,123,-211,874,-400,191
361420,453535345930819,28,3,3,3,3,3553,-1936,458,2678,-1535,269,57,-303,30,6871,5594,-8780,10623,-280,123,-211,874,-400,188
361430,453535361228373,28,3,3,3,3,3289,-1996,582,2412,-1597,399,172,-676,-118,6854,5633,-8799,10597,-273,136,-200,876,-399,183
361440,453535361228373,28,3,3,3,3,2912,-1913,587,2033,-1516,409,231,-696,-191,6825,5691,-8806,10579,-273,136,-200,879,-396,177
361450,453535376140510,28,3,3,3,3,2350,-1579,811,1470,-1184,635,452,-311,-125,6803,5732,-8788,10587,-273,136,-200,880,-394,176
361460,453535376140510,28,3,3,3,3,2103,-1362,758,1223,-968,578,669,111,38,6785,5749,-8746,10624,-273,136,-200,879,-393,180
361470,453535405087231,28,3,3,3,3,1870,-1117,607,992,-723,418,840,506,190,6771,5741,-8685,10687,-273,136,-200,877,-394,188
361480,453535405087231,28,3,3,3,3,1623,-909,478,748,-513,278,965,758,331,6767,5709,-8616,10762,-297,147,-174,874,-395,200
361490,453535419589733,28,3,3,3,3,1098,-561,260,227,-164,47,1066,868,424,6749,5677,-8534,10855,-297,147,-174,871,-396,213
361500,453535419589733,28,3,3,3,3,1098,-561,260,227,-164,47,1066,868,424,6749,5677,-8534,10855,-297,147,-174,871,-396,213
361500,453535435838953,28,3,3,3,3,852,-374,162,-14,24,-63,1111,902,451,6729,5643,-8449,10951,-297,147,-174,866,-398,226
361510,453535435838953,28,3,3,3,3,598,-210,101,-264,189,-137,1076,841,430,6709,5613,-8367,11042,-297,147,-174,862,-399,238
361520,453535450858382,28,3,3,3,3,228,93,33,-630,494,-216,942,754,370,6692,5584,-8294,11121,-297,147,-174,859,-400,250
361530,453535450858382,28,3,3,3,3,111,189,-11,-744,591,-270,750,686,334,6687,5549,-8238,11183,-286,136,-217,855,-401,259
361540,453535463905623,28,3,3,3,3,-10,238,-57,-862,642,-326,593,607,325,6677,5519,-8189,11240,-286,136,-217,852,-403,268
361550,453535463905623,28,3,3,3,3,-108,299,-93,-958,703,-368,458,472,310,6665,5493,-8153,11286,-286,136,-217,849,-404,274
361560,453535494898959,28,3,3,3,3,-245,351,-109,-1093,758,-389,324,363,287,6654,5469,-8129,11322,-286,136,-217,847,-406,279
361570,453535494898959,28,3,3,3,3,-292,355,-104,-1137,763,-387,218,306,263,6644,5446,-8112,11350,-286,136,-217,845,-408,283
361580,453535509615992,28,3,3,3,3,-313,332,-76,-1156,742,-361,164,211,247,6633,5428,-8102,11372,-291,129,-225,843,-410,285
361590,453535509615992,28,3,3,3,3,-309,303,-75,-1152,715,-362,49,76,206,6622,5416,-8102,11384,-291,129,-225,842,-411,286
361600,453535525899691,28,3,3,3,3,-225,218,-45,-1068,631,-331,-67,-71,146,6612,5412,-8113,11384,-291,129,-225,842,-413,285
361610,453535525899691,28,3,3,3,3,-166,178,-35,-1008,593,-318,-146,-190,63,6604,5415,-8131,11375,-291,129,-225,842,-414,283
361620,453535555043913,28,3,3,3,3,-78,133,-20,-921,548,-300,-207,-271,-26,6600,5426,-8153,11356,-291,129,-225,843,-414,279
361630,453535555043913,28,3,3,3,3,12,79,0,-832,494,-274,-252,-334,-92,6595,5444,-8176,11334,-297,129,-230,844,-414,275
361640,453535600790063,28,3,3,3,3,193,-68,38,-653,345,-232,-283,-408,-130,6593,5465,-8204,11305,-297,129,-230,846,-414,270
361650,453535600790063,28,3,3,3,3,249,-124,53,-599,289,-211,-305,-470,-166,6591,5491,-8235,11271,-297,129,-230,848,-413,264
361660,453535607657147,28,3,3,3,3,271,-174,72,-579,238,-186,-317,-504,-188,6590,5519,-8267,11235,-297,129,-230,851,-412,258
361670,453535607657147,28,3,3,3,3,285,-210,89,-567,201,-163,-286,-480,-194,6588,5547,-8296,11200,-297,129,-230,853,-411,253
361680,453535614472669,28,3,3,3,3,263,-254,87,-591,155,-160,-207,-403,-172,6572,5583,-8310,11181,-302,123,-211,855,-410,248
361690,453535614472669,28,3,3,3,3,252,-251,88,-604,158,-156,-106,-306,-133,6569,5604,-8323,11162,-302,123,-211,856,-409,245
361700,453535645791474,28,3,3,3,3,220,-237,82,-637,171,-160,-21,-167,-92,6568,5618,-8328,11153,-302,123,-211,857,-409,243
361710,453535645791474,28,3,3,3,3,208,-190,59,-648,217,-183,60,-31,-54,6568,5624,-8324,11153,-302,123,-211,857,-408,243
361720,453535652166266,28,3,3,3,3,251,-160,43,-605,247,-200,128,43,-27,6568,5627,-8314,11159,-302,123,-211,857,-407,244
361730,453535652166266,28,3,3,3,3,330,-113,71,-526,293,-174,122,66,-17,6563,5632,-8301,11169,-302,129,-217,857,-407,245
361740,453535674631529,28,3,3,3,3,471,-63,157,-386,343,-88,-39,29,-37,6568,5630,-8301,11166,-302,129,-217,857,-407,245
361750,453535674631529,28,3,3,3,3,902,-66,366,43,341,123,-354,-106,-57,6578,5627,-8325,11145,-302,129,-217,858,-407,242
361760,453535679716269,28,3,3,3,3,902,-66,366,43,341,123,-354,-106,-57,6578,5627,-8325,11145,-302,129,-217,858,-407,242
361760,453535679716269,28,3,3,3,3,1156,-162,408,297,245,171,-649,-345,-42,6584,5626,-8375,11103,-302,129,-217,859,-408,236
361770,453535704454136,28,3,3,3,3,1442,-331,361,582,80,134,-821,-604,64,6578,5631,-8448,11049,-302,129,-217,860,-411,227
361780,453535704454136,28,3,3,3,3,1743,-595,269,883,-178,51,-874,-613,309,6557,5622,-8532,11001,-286,123,-225,860,-416,217
361790,453535720918252,28,3,3,3,3,2246,-1316,298,1388,-892,85,-702,-213,619,6532,5581,-8601,10984,-286,123,-225,858,-423,212
361800,453535720918252,28,3,3,3,3,2356,-1666,517,1502,-1233,306,-381,6,886,6490,5526,-8650,10997,-286,123,-225,854,-433,210
361810,453535735009973,28,3,3,3,3,2386,-1913,795,1536,-1470,586,-114,-133,964,6430,5485,-8691,11022,-286,123,-225,849,-442,209
361820,453535735009973,28,3,3,3,3,2365,-1942,877,1517,-1493,671,-98,-264,706,6377,5463,-8727,11034,-286,123,-225,847,-449,206
361830,453535765953101,28,3,3,3,3,2514,-1663,756,1668,-1210,553,-213,-187,311,6363,5447,-8759,11025,-286,140,-211,846,-452,203
361840,453535765953101,28,3,3,3,3,2682,-1492,746,1836,-1039,544,-163,-23,41,6364,5441,-8771,11018,-286,140,-211,845,-453,202
361850,453535781161644,28,3,3,3,3,2826,-1377,839,1980,-924,636,-48,115,-51,6374,5435,-8768,11018,-286,140,-211,845,-452,203
361860,453535781161644,28,3,3,3,3,2753,-1296,841,1907,-844,636,72,217,-46,6385,5426,-8755,11026,-286,140,-211,845,-452,205
361870,453535795295968,28,3,3,3,3,2457,-1260,711,1612,-808,502,257,265,1,6390,5419,-8730,11046,-286,140,-211,844,-451,209
361880,453535795295968,28,3,3,3,3,2122,-1192,594,1278,-741,380,482,326,42,6402,5403,-8698,11072,-273,158,-187,843,-450,214
361890,453535840279462,28,3,3,3,3,1776,-1094,525,933,-644,303,643,434,59,6400,5396,-8646,11118,-273,158,-187,842,-449,221
361900,453535840279462,28,3,3,3,3,1144,-785,389,303,-337,158,756,527,83,6398,5387,-8584,11172,-273,158,-187,840,-448,230
361910,453535847027692,28,3,3,3,3,878,-606,280,39,-159,39,855,633,103,6396,5373,-8512,11234,-273,158,-187,838,-447,240
361920,453535847027692,28,3,3,3,3,656,-426,174,-179,19,-76,919,660,102,6393,5359,-8436,11299,-273,158,-187,836,-446,250
361930,453535855070922,28,3,3,3,3,504,-274,79,-329,169,-181,934,622,92,6399,5342,-8364,11358,-273,153,-200,834,-444,261
361940,453535855070922,28,3,3,3,3,263,-14,-51,-569,428,-321,850,541,64,6395,5334,-8294,11415,-273,153,-200,832,-442,270
361950,453535884783529,28,3,3,3,3,169,78,-80,-661,519,-358,666,483,1,6397,5327,-8236,11459,-273,153,-200,830,-440,277
361960,453535884783529,28,3,3,3,3,68,154,-112,-762,592,-396,463,405,-74,6406,5321,-8191,11489,-273,153,-200,830,-438,283
361970,453535899877333,28,3,3,3,3,1,214,-125,-827,650,-413,267,306,-144,6421,5318,-8159,11505,-273,153,-200,829,-436,287
361980,453535899877333,28,3,3,3,3,-45,234,-124,-875,668,-415,76,233,-194,6450,5309,-8144,11503,-273,147,-230,829,-434,290
361990,453535914720824,28,3,3,3,3,-64,195,-113,-894,628,-404,-38,148,-167,6468,5305,-8136,11500,-273,147,-230,830,-432,291
362000,453535914720824,28,3,3,3,3,-83,135,-89,-913,568,-380,-79,38,-94,6478,5304,-8137,11494,-273,147,-230,830,-432,291
362010,453535947013848,28,3,3,3,3,-83,135,-89,-913,568,-380,-79,38,-94,6478,5304,-8137,11494,-273,147,-230,830,-432,291
362010,453535947013848,28,3,3,3,3,-104,61,-51,-935,493,-341,-92,-89,-36,6479,5308,-8145,11486,-273,147,-230,831,-432,290
362020,453535953928171,28,3,3,3,3,-101,30,-28,-932,462,-316,-80,-185,-13,6474,5318,-8156,11477,-273,147,-230,831,-432,287
362030,453535953928171,28,3,3,3,3,-80,1,-6,-912,434,-291,-40,-231,-12,6465,5332,-8166,11468,-273,129,-236,832,-432,285
362040,453535974080517,28,3,3,3,3,-43,-11,3,-876,420,-280,-10,-245,-38,6457,5349,-8175,11459,-273,129,-236,833,-432,283
362050,453535974080517,28,3,3,3,3,34,-15,10,-800,415,-270,-3,-261,-70,6449,5368,-8182,11449,-273,129,-236,834,-431,281
362060,453535988675727,28,3,3,3,3,93,-29,12,-742,400,-266,-5,-274,-111,6444,5390,-8188,11437,-273,129,-236,835,-430,278
362070,453535988675727,28,3,3,3,3,146,-45,21,-691,384,-254,1,-270,-129,6440,5413,-8194,11425,-273,129,-236,837,-429,276
362080,453536004236510,28,3,3,3,3,183,-76,28,-655,351,-245,13,-243,-124,6432,5437,-8196,11417,-280,129,-217,838,-428,273
362090,453536004236510,28,3,3,3,3,220,-117,42,-619,309,-229,25,-213,-118,6429,5457,-8198,11407,-280,129,-217,839,-426,272
362100,453536050402296,28,3,3,3,3,190,-121,57,-650,304,-212,40,-193,-113,6426,5475,-8199,11399,-280,129,-217,840,-425,270
362110,453536050402296,28,3,3,3,3,146,-117,85,-695,307,-183,65,-165,-118,6424,5493,-8197,11393,-280,129,-217,842,-424,269
362120,453536058016307,28,3,3,3,3,105,-102,96,-737,320,-171,99,-128,-144,6424,5511,-8191,11389,-280,129,-217,843,-422,268
362130,453536058016307,28,3,3,3,3,63,-79,72,-780,341,-196,154,-100,-171,6423,5532,-8179,11388,-286,129,-236,844,-420,268
362140,453536065011255,28,3,3,3,3,66,-70,41,-779,348,-227,219,-60,-190,6426,5552,-8161,11389,-286,129,-236,845,-418,268
362150,453536065011255,28,3,3,3,3,81,-70,10,-764,345,-259,279,-23,-190,6428,5572,-8139,11394,-286,129,-236,846,-415,269
362160,453536094603081,28,3,3,3,3,123,-66,-14,-723,346,-286,331,42,-175,6431,5588,-8112,11404,-286,129,-236,846,-413,271
362170,453536094603081,28,3,3,3,3,238,-42,-50,-608,368,-325,342,144,-149,6436,5598,-8081,11418,-286,129,-236,847,-410,274
362180,453536109555322,28,3,3,3,3,310,-16,3,-536,392,-274,275,240,-132,6449,5597,-8052,11432,-286,136,-225,846,-408,278
362190,453536109555322,28,3,3,3,3,380,4,90,-466,412,-190,91,301,-119,6467,5587,-8032,11441,-286,136,-225,846,-407,281
362200,453536125475689,28,3,3,3,3,661,6,331,-184,413,49,-173,242,-65,6487,5568,-8033,11438,-286,136,-225,846,-407,282
362210,453536125475689,28,3,3,3,3,869,-35,547,23,373,266,-467,41,11,6502,5549,-8061,11419,-286,136,-225,845,-408,280
362220,453536154051629,28,3,3,3,3,1202,-185,701,356,226,426,-736,-348,109,6502,5540,-8122,11380,-286,136,-225,846,-412,274
362230,453536154051629,28,3,3,3,3,1652,-474,784,804,-57,521,-991,-771,173,6491,5542,-8218,11316,-286,129,-262,847,-416,262
362240,453536169505328,28,3,3,3,3,2579,-1281,197,1730,-859,-51,-1589,-757,148,6496,5525,-8347,11227,-286,129,-262,849,-422,248
362250,453536169505328,28,3,3,3,3,2895,-1603,404,2045,-1175,166,-1527,-385,226,6510,5484,-8460,11153,-286,129,-262,849,-428,237
362260,453536200316998,28,3,3,3,3,2664,-1654,263,1816,-1221,27,-375,23,352,6501,5453,-8493,11149,-286,129,-262,847,-432,236
362270,453536200316998,28,3,3,3,3,2664,-1654,263,1816,-1221,27,-375,23,352,6501,5453,-8493,11149,-286,129,-262,847,-432,236
362270,453536205226738,28,3,3,3,3,2464,-1659,310,1618,-1225,73,321,-74,292,6471,5456,-8484,11172,-286,129,-262,846,-434,237
362280,453536205226738,28,3,3,3,3,1703,-1296,531,856,-861,296,271,-348,110,6457,5469,-8492,11168,-268,140,-225,846,-434,235
362290,453536214999760,28,3,3,3,3,1427,-1119,763,579,-684,533,165,-629,29,6421,5512,-8505,11158,-268,140,-225,848,-434,230
362300,453536214999760,28,3,3,3,3,1311,-999,884,461,-564,661,8,-692,-61,6392,5557,-8527,11135,-268,140,-225,850,-434,223
362310,453536259837369,28,3,3,3,3,1332,-926,780,479,-494,560,37,-430,-169,6381,5592,-8535,11118,-268,140,-225,852,-432,219
362320,453536259837369,28,3,3,3,3,1631,-904,555,777,-473,337,51,-184,-211,6384,5615,-8532,11107,-268,140,-225,853,-430,218
362330,453536267295182,28,3,3,3,3,1775,-907,505,920,-477,287,-36,17,-144,6406,5610,-8535,11094,-273,147,-211,854,-429,218
362340,453536267295182,28,3,3,3,3,1784,-852,461,930,-424,242,-122,154,-64,6421,5599,-8535,11091,-273,147,-211,854,-428,219
362350,453536274376901,28,3,3,3,3,1457,-715,351,603,-286,130,-18,205,-1,6431,5586,-8528,11097,-273,147,-211,853,-428,221
362360,453536274376901,28,3,3,3,3,1242,-678,327,389,-249,103,207,230,53,6432,5577,-8509,11115,-273,147,-211,852,-429,224
362370,453536319178520,28,3,3,3,3,1015,-644,320,163,-215,92,372,263,110,6426,5569,-8481,11145,-273,147,-211,851,-429,228
362380,453536319178520,28,3,3,3,3,785,-589,284,-64,-159,50,481,337,152,6429,5550,-8450,11176,-286,147,-230,850,-429,233
362390,453536326153938,28,3,3,3,3,443,-410,153,-404,19,-86,559,388,143,6421,5539,-8407,11219,-286,147,-230,848,-429,240
362400,453536326153938,28,3,3,3,3,330,-308,116,-515,120,-130,580,429,99,6417,5528,-8359,11262,-286,147,-230,846,-428,246
362410,453536336562585,28,3,3,3,3,271,-200,92,-573,226,-161,565,478,38,6419,5516,-8309,11303,-286,147,-230,845,-427,253
362420,453536336562585,28,3,3,3,3,250,-92,72,-592,333,-188,557,515,16,6425,5503,-8257,11345,-286,147,-230,843,-426,261
362430,453536382131027,28,3,3,3,3,267,46,60,-574,471,-207,505,534,29,6447,5475,-8215,11376,-286,153,-219,842,-424,268
362440,453536382131027,28,3,3,3,3,285,88,57,-554,513,-217,438,541,85,6453,5453,-8171,11414,-286,153,-219,840,-424,275
362450,453536388532277,28,3,3,3,3,299,97,67,-538,522,-214,358,516,172,6455,5426,-8136,11452,-286,153,-219,837,-424,281
362460,453536388532277,28,3,3,3,3,311,79,78,-523,506,-208,271,470,257,6451,5394,-8110,11487,-286,153,-219,835,-426,287
362470,453536395371809,28,3,3,3,3,335,-8,96,-497,420,-195,182,392,313,6444,5362,-8094,11517,-286,153,-219,832,-428,291
362480,453536395371809,28,3,3,3,3,366,-60,113,-463,370,-181,96,306,310,6440,5329,-8088,11539,-286,140,-236,829,-431,295
