timestamp,android_nano_timestamp,temperature,calib_mag,calib_accel,calib_gyro,calib_sys,acc_x,acc_y,acc_z,lacc_x,lacc_y,lacc_z,gyro_x,gyro_y,gyro_z,quat_w,quat_x,quat_y,quat_z,mag_x,mag_y,mag_z,gravity_x,gravity_y,gravity_z
352.62,453526.619441929,28,3,3,3,2,7.96,-3.72,2.19,-1.0,-0.35,0.12,6.6875,1.0,6.5625,0.32916259765625,0.43963623046875,-0.44854736328125,0.705078125,-18.875,5.75,-12.5,8.97,-3.36,2.06
352.63,453526.619441929,28,3,3,3,2,7.97,-3.75,2.2,-0.99,-0.37,0.12,5.25,1.6875,7.6875,0.32855224609375,0.43939208984375,-0.44842529296875,0.70556640625,-18.875,5.75,-12.5,8.97,-3.37,2.07
352.64,453526.623376513,28,3,3,3,2,8.03,-3.66,2.14,-0.92,-0.27,0.05,3.4375,1.6875,7.6875,0.3280029296875,0.4390869140625,-0.448486328125,0.70599365234375,-18.875,5.75,-12.5,8.96,-3.38,2.08
352.65,453526.623376513,28,3,3,3,2,8.12,-3.61,2.03,-0.83,-0.21,-0.05,2.25,2.0625,7.5625,0.32757568359375,0.438720703125,-0.44854736328125,0.7064208984375,-18.875,5.75,-12.5,8.96,-3.39,2.08
352.66,453526.626266409,28,3,3,3,2,8.31,-3.62,1.94,-0.63,-0.21,-0.14,0.8125,2.6875,7.375,0.3271484375,0.43829345703125,-0.44873046875,0.706787109375,-18.875,5.75,-12.5,8.95,-3.4,2.08
352.67,453526.626266409,28,3,3,3,2,8.41,-3.69,1.98,-0.53,-0.27,-0.1,-0.6875,4.0625,6.9375,0.32818603515625,0.43695068359375,-0.44970703125,0.70648193359375,-19.6875,6.1875,-11.6875,8.94,-3.41,2.09
352.68,453526.631651618,28,3,3,3,2,8.65,-3.81,1.9,-0.28,-0.38,-0.19,-2.3125,5.5625,6.4375,0.328125,0.436279296875,-0.44989013671875,0.706787109375,-19.6875,6.1875,-11.6875,8.94,-3.42,2.1
352.69,453526.631651618,28,3,3,3,2,9.32,-3.99,1.7,0.39,-0.55,-0.4,-4.5,7.0,5.375,0.3282470703125,0.43548583984375,-0.4501953125,0.70703125,-19.6875,6.1875,-11.6875,8.93,-3.43,2.11
352.7,453526.634286618,28,3,3,3,2,9.7,-3.92,1.91,0.77,-0.48,-0.2,-7.25,8.6875,3.5,0.32861328125,0.43463134765625,-0.45050048828125,0.70721435546875,-19.6875,6.1875,-11.6875,8.93,-3.44,2.12
352.71,453526.634286618,28,3,3,3,2,9.97,-3.86,2.26,1.04,-0.4,0.13,-9.625,9.1875,0.75,0.32928466796875,0.4337158203125,-0.45086669921875,0.70721435546875,-19.6875,6.1875,-11.6875,8.92,-3.45,2.12
352.72,453526.643077452,28,3,3,3,2,10.05,-3.87,2.62,1.12,-0.42,0.48,-10.375,9.25,-1.6875,0.33172607421875,0.43194580078125,-0.4521484375,0.70635986328125,-19.6875,6.5625,-12.0625,8.92,-3.45,2.13
352.73,453526.643077452,28,3,3,3,2,10.21,-4.13,2.3,1.28,-0.68,0.16,-8.8125,8.75,-3.25,0.3326416015625,0.4312744140625,-0.45233154296875,0.70623779296875,-19.6875,6.5625,-12.0625,8.92,-3.45,2.14
352.74,453526.675121883,28,3,3,3,2,10.28,-4.27,2.11,1.35,-0.82,-0.04,-6.6875,9.8125,-4.1875,0.33355712890625,0.43060302734375,-0.4522705078125,0.70623779296875,-19.6875,6.5625,-12.0625,8.92,-3.44,2.15
352.75,453526.675121883,28,3,3,3,2,10.19,-4.32,2.13,1.27,-0.88,-0.04,-5.1875,10.875,-5.125,0.33447265625,0.42999267578125,-0.45208740234375,0.706298828125,-19.6875,6.5625,-12.0625,8.92,-3.44,2.17
352.76,453526.688528446,28,3,3,3,2,9.95,-4.25,2.27,1.02,-0.81,0.09,-3.3125,11.75,-5.625,0.33538818359375,0.42938232421875,-0.45172119140625,0.7064208984375,-19.6875,6.5625,-12.0625,8.92,-3.43,2.18
352.77,453526.688528446,28,3,3,3,2,9.34,-3.94,2.18,0.42,-0.51,-0.02,-0.5625,11.4375,-5.3125,0.33795166015625,0.42779541015625,-0.4522705078125,0.70587158203125,-18.5625,6.1875,-12.875,8.92,-3.42,2.2
352.78,453526.703341677,28,3,3,3,2,9.03,-3.77,2.1,0.11,-0.36,-0.12,1.6875,12.6875,-4.0625,0.338623046875,0.42718505859375,-0.45166015625,0.706298828125,-18.5625,6.1875,-12.875,8.91,-3.41,2.22
352.79,453526.703341677,28,3,3,3,2,8.7,-3.57,2.03,-0.2,-0.16,-0.21,2.625,13.0625,-2.6875,0.33917236328125,0.42657470703125,-0.45098876953125,0.706787109375,-18.5625,6.1875,-12.875,8.91,-3.41,2.24
352.8,453526.732596888,28,3,3,3,2,8.41,-3.39,1.99,-0.49,0.01,-0.27,2.25,12.625,-1.3125,0.3397216796875,0.4259033203125,-0.450439453125,0.70733642578125,-18.5625,6.1875,-12.875,8.9,-3.41,2.26
352.81,453526.732596888,28,3,3,3,2,7.95,-3.02,1.83,-0.95,0.38,-0.45,1.625,12.0625,-0.0625,0.340087890625,0.42523193359375,-0.449951171875,0.70782470703125,-18.5625,6.1875,-12.875,8.9,-3.41,2.28
352.82,453526.747955067,28,3,3,3,2,7.83,-2.86,1.79,-1.06,0.55,-0.51,0.25,11.125,0.4375,0.34197998046875,0.42364501953125,-0.45050048828125,0.70758056640625,-18.1875,6.1875,-11.6875,8.9,-3.41,2.3
352.83,453526.747955067,28,3,3,3,2,7.78,-2.73,1.78,-1.1,0.68,-0.53,-1.9375,9.8125,0.8125,0.34234619140625,0.42291259765625,-0.45037841796875,0.7078857421875,-18.1875,6.1875,-11.6875,8.89,-3.41,2.32
352.84,453526.763019652,28,3,3,3,2,7.78,-2.66,1.82,-1.11,0.74,-0.5,-4.6875,8.375,0.9375,0.34283447265625,0.4222412109375,-0.450439453125,0.7080078125,-18.1875,6.1875,-11.6875,8.89,-3.41,2.33
352.85,453526.763019652,28,3,3,3,2,7.94,-2.68,1.86,-0.94,0.73,-0.46,-7.625,6.625,0.625,0.34332275390625,0.42156982421875,-0.45074462890625,0.7080078125,-18.1875,6.1875,-11.6875,8.88,-3.42,2.33
352.86,453526.793517155,28,3,3,3,2,8.08,-2.78,1.88,-0.8,0.63,-0.45,-10.25,5.0,0.375,0.3438720703125,0.42095947265625,-0.45123291015625,0.707763671875,-18.1875,6.1875,-11.6875,8.88,-3.42,2.33
352.87,453526.793517155,28,3,3,3,2,8.24,-2.93,1.91,-0.63,0.49,-0.42,-12.375,3.5,0.3125,0.3458251953125,0.41949462890625,-0.45269775390625,0.706787109375,-19.25,6.5625,-12.0625,8.88,-3.42,2.33
352.88,453526.808597312,28,3,3,3,2,8.64,-3.27,1.93,-0.23,0.16,-0.39,-13.875,2.75,0.1875,0.346435546875,0.41888427734375,-0.45343017578125,0.706298828125,-19.25,6.5625,-12.0625,8.88,-3.43,2.33
352.89,453526.808597312,28,3,3,3,2,8.82,-3.44,2.01,-0.05,0.0,-0.31,-14.4375,2.0625,-0.1875,0.3470458984375,0.4183349609375,-0.45428466796875,0.705810546875,-19.25,6.5625,-12.0625,8.88,-3.44,2.32
352.9,453526.823160856,28,3,3,3,2,8.97,-3.6,2.07,0.09,-0.15,-0.24,-13.9375,1.875,-0.875,0.34771728515625,0.4178466796875,-0.45501708984375,0.705322265625,-19.25,6.5625,-12.0625,8.88,-3.44,2.32
352.91,453526.823160856,28,3,3,3,2,9.1,-3.75,2.12,0.22,-0.3,-0.19,-12.8125,2.0625,-1.5,0.34832763671875,0.4173583984375,-0.4556884765625,0.704833984375,-19.25,6.5625,-12.0625,8.88,-3.44,2.31
352.92,453526.854823359,28,3,3,3,2,9.14,-3.88,2.17,0.26,-0.43,-0.13,-11.0625,2.0625,-2.125,0.34979248046875,0.41650390625,-0.45672607421875,0.7039794921875,-19.25,5.75,-13.1875,8.88,-3.44,2.31
352.93,453526.854823359,28,3,3,3,2,9.09,-3.83,2.15,0.21,-0.38,-0.15,-9.1875,2.25,-2.625,0.350341796875,0.4161376953125,-0.4571533203125,0.70361328125,-19.25,5.75,-13.1875,8.88,-3.44,2.31
352.94,453526.869992058,28,3,3,3,2,9.05,-3.8,2.17,0.17,-0.35,-0.13,-7.6875,3.0625,-2.625,0.35089111328125,0.41583251953125,-0.4573974609375,0.703369140625,-19.25,5.75,-13.1875,8.88,-3.44,2.31
352.95,453526.869992058,28,3,3,3,2,8.99,-3.74,2.19,0.1,-0.29,-0.11,-6.5,3.875,-2.4375,0.3514404296875,0.41552734375,-0.4576416015625,0.703125,-19.25,5.75,-13.1875,8.88,-3.44,2.31
352.96,453526.885756487,28,3,3,3,2,8.91,-3.61,2.27,0.02,-0.16,-0.04,-5.5,4.6875,-1.875,0.3519287109375,0.41510009765625,-0.457763671875,0.70306396484375,-19.25,5.75,-13.1875,8.88,-3.44,2.31
352.97,453526.885756487,28,3,3,3,2,8.85,-3.57,2.25,-0.02,-0.12,-0.07,-4.5,5.25,-1.4375,0.3533935546875,0.4140625,-0.45849609375,0.7025146484375,-19.25,6.1875,-13.1875,8.88,-3.44,2.32
352.98,453526.917786803,28,3,3,3,2,8.82,-3.52,2.27,-0.05,-0.07,-0.05,-3.4375,5.4375,-1.0,0.353759765625,0.41363525390625,-0.45849609375,0.7025146484375,-19.25,6.1875,-13.1875,8.88,-3.44,2.32
352.99,453526.917786803,28,3,3,3,2,8.77,-3.48,2.25,-0.1,-0.03,-0.07,-2.5625,5.8125,-0.625,0.3541259765625,0.4132080078125,-0.45849609375,0.70257568359375,-19.25,6.1875,-13.1875,8.87,-3.44,2.33
353.0,453526.93123045,28,3,3,3,2,8.75,-3.38,2.27,-0.12,0.06,-0.06,-1.9375,6.4375,-0.75,0.3544921875,0.41278076171875,-0.4583740234375,0.70269775390625,-19.25,6.1875,-13.1875,8.87,-3.44,2.34
353.01,453526.93123045,28,3,3,3,2,8.74,-3.31,2.26,-0.12,0.13,-0.08,-1.8125,6.5,-1.3125,0.3548583984375,0.41241455078125,-0.458251953125,0.70281982421875,-19.25,6.1875,-13.1875,8.87,-3.44,2.35
353.02,453526.945488837,28,3,3,3,2,8.72,-3.25,2.27,-0.14,0.19,-0.08,-1.875,6.4375,-1.6875,0.35650634765625,0.4112548828125,-0.45880126953125,0.70233154296875,-18.875,6.1875,-13.5625,8.87,-3.44,2.36
353.03,453526.945488837,28,3,3,3,2,8.7,-3.22,2.23,-0.16,0.21,-0.13,-2.4375,6.1875,-2.0,0.35699462890625,0.41082763671875,-0.45867919921875,0.702392578125,-18.875,6.1875,-13.5625,8.87,-3.44,2.36
353.04,453526.973613371,28,3,3,3,2,8.71,-3.26,2.21,-0.15,0.17,-0.16,-2.875,6.25,-2.125,0.357421875,0.41046142578125,-0.4586181640625,0.70245361328125,-18.875,6.1875,-13.5625,8.87,-3.44,2.37
353.05,453526.973613371,28,3,3,3,2,8.7,-3.32,2.24,-0.16,0.11,-0.14,-3.25,6.1875,-2.1875,0.35797119140625,0.4100341796875,-0.45855712890625,0.70245361328125,-18.875,6.1875,-13.5625,8.86,-3.43,2.38
353.06,453526.988895612,28,3,3,3,2,8.7,-3.35,2.27,-0.16,0.07,-0.11,-3.6875,6.125,-2.25,0.35845947265625,0.40966796875,-0.45849609375,0.70245361328125,-18.875,6.1875,-13.5625,8.86,-3.43,2.39
353.07,453526.988895612,28,3,3,3,2,8.74,-3.4,2.33,-0.12,0.03,-0.06,-4.5,6.1875,-2.125,0.36053466796875,0.40826416015625,-0.45941162109375,0.70166015625,-18.875,6.875,-12.875,8.86,-3.43,2.39
353.08,453527.004867436,28,3,3,3,2,8.76,-3.39,2.3,-0.09,0.04,-0.09,-5.1875,6.375,-1.875,0.361083984375,0.40777587890625,-0.45947265625,0.70159912109375,-18.875,6.875,-12.875,8.86,-3.43,2.4
353.09,453527.004867436,28,3,3,3,2,8.81,-3.39,2.32,-0.04,0.04,-0.08,-5.8125,6.5625,-1.5625,0.36163330078125,0.4072265625,-0.4595947265625,0.7015380859375,-18.875,6.875,-12.875,8.86,-3.43,2.41
353.1,453527.035817804,28,3,3,3,2,8.85,-3.39,2.44,0.0,0.03,0.02,-6.875,6.9375,-1.5,0.3623046875,0.40667724609375,-0.459716796875,0.70147705078125,-18.875,6.875,-12.875,8.86,-3.43,2.41
353.11,453527.035817804,28,3,3,3,2,8.85,-3.45,2.57,0.0,-0.02,0.14,-7.9375,6.625,-1.375,0.3629150390625,0.40606689453125,-0.4599609375,0.70135498046875,-18.875,6.875,-12.875,8.85,-3.43,2.42
353.12,453527.049724784,28,3,3,3,2,8.83,-3.49,2.49,-0.01,-0.05,0.06,-8.25,6.0625,-1.25,0.36468505859375,0.40472412109375,-0.46087646484375,0.7005615234375,-18.5625,6.1875,-13.5625,8.85,-3.43,2.42
353.13,453527.049724784,28,3,3,3,2,8.84,-3.48,2.33,-0.01,-0.04,-0.09,-7.6875,5.6875,-0.5,0.36517333984375,0.40411376953125,-0.461181640625,0.70050048828125,-18.5625,6.1875,-13.5625,8.85,-3.44,2.43
353.14,453527.064075723,28,3,3,3,2,8.8,-3.45,2.32,-0.04,-0.01,-0.11,-7.1875,5.9375,0.1875,0.36566162109375,0.403564453125,-0.46142578125,0.70037841796875,-18.5625,6.1875,-13.5625,8.85,-3.44,2.43
353.15,453527.064075723,28,3,3,3,2,8.69,-3.59,2.51,-0.15,-0.14,0.07,-8.25,6.625,1.0,0.36614990234375,0.40283203125,-0.46173095703125,0.7003173828125,-18.5625,6.1875,-13.5625,8.84,-3.44,2.44
353.16,453527.095075466,28,3,3,3,2,8.68,-3.65,2.43,-0.15,-0.2,-0.01,-9.4375,6.625,1.625,0.36663818359375,0.40203857421875,-0.46221923828125,0.70025634765625,-18.5625,6.1875,-13.5625,8.84,-3.45,2.44
353.17,453527.095075466,28,3,3,3,2,8.7,-3.62,2.25,-0.13,-0.16,-0.19,-9.0625,6.125,2.0625,0.3682861328125,0.400390625,-0.46343994140625,0.699462890625,-17.875,6.1875,-13.5625,8.84,-3.46,2.45
353.18,453527.11066828,28,3,3,3,2,8.71,-3.56,2.4,-0.11,-0.09,-0.05,-7.9375,5.9375,2.625,0.36865234375,0.399658203125,-0.4638671875,0.699462890625,-17.875,6.1875,-13.5625,8.83,-3.47,2.45
353.19,453527.11066828,28,3,3,3,2,8.71,-3.64,2.48,-0.11,-0.15,0.02,-7.625,5.375,2.75,0.368896484375,0.39892578125,-0.4642333984375,0.699462890625,-17.875,6.1875,-13.5625,8.83,-3.48,2.45
353.2,453527.124120729,28,3,3,3,2,8.67,-3.68,2.5,-0.15,-0.19,0.04,-7.8125,4.125,2.8125,0.369140625,0.39825439453125,-0.4647216796875,0.69940185546875,-17.875,6.1875,-13.5625,8.82,-3.49,2.45
353.21,453527.124120729,28,3,3,3,2,8.64,-3.66,2.49,-0.17,-0.17,0.03,-7.75,3.1875,2.5625,0.369384765625,0.397705078125,-0.4652099609375,0.69927978515625,-17.875,6.1875,-13.5625,8.82,-3.49,2.45
353.22,453527.154267607,28,3,3,3,3,8.63,-3.65,2.49,-0.18,-0.14,0.03,-7.5625,2.625,2.0625,0.36962890625,0.39715576171875,-0.4656982421875,0.69915771484375,-18.5625,5.5,-12.875,8.82,-3.5,2.45
353.23,453527.154267607,28,3,3,3,3,8.67,-3.66,2.47,-0.14,-0.15,0.01,-7.0625,2.4375,2.0,0.36981201171875,0.39666748046875,-0.46612548828125,0.69903564453125,-18.5625,5.5,-12.875,8.81,-3.51,2.45
353.24,453527.170221463,28,3,3,3,3,8.72,-3.67,2.41,-0.09,-0.15,-0.04,-6.375,1.9375,2.0625,0.36993408203125,0.39617919921875,-0.466552734375,0.69891357421875,-18.5625,5.5,-12.875,8.81,-3.52,2.45
353.25,453527.170221463,28,3,3,3,3,8.69,-3.69,2.48,-0.12,-0.16,0.02,-6.125,1.375,2.0625,0.37005615234375,0.39581298828125,-0.46697998046875,0.69879150390625,-18.5625,5.5,-12.875,8.81,-3.52,2.45
353.26,453527.186453079,28,3,3,3,3,8.7,-3.63,2.68,-0.11,-0.1,0.23,-6.5,0.375,1.75,0.37017822265625,0.39544677734375,-0.46746826171875,0.6986083984375,-18.5625,5.5,-12.875,8.81,-3.53,2.45
353.27,453527.186453079,28,3,3,3,3,8.67,-3.61,2.68,-0.13,-0.07,0.23,-7.4375,-0.6875,1.0,0.3714599609375,0.39434814453125,-0.4686279296875,0.69775390625,-18.875,6.875,-13.5625,8.81,-3.53,2.44
353.28,453527.215397457,28,3,3,3,3,8.65,-3.58,2.63,-0.15,-0.04,0.19,-7.625,-1.375,0.5625,0.37164306640625,0.39410400390625,-0.4691162109375,0.697509765625,-18.875,6.875,-13.5625,8.81,-3.54,2.44
353.29,453527.215397457,28,3,3,3,3,8.67,-3.61,2.59,-0.13,-0.06,0.16,-7.3125,-1.6875,0.0,0.371826171875,0.3939208984375,-0.4696044921875,0.69720458984375,-18.875,6.875,-13.5625,8.81,-3.54,2.43
353.3,453527.231889855,28,3,3,3,3,8.72,-3.65,2.51,-0.08,-0.09,0.08,-6.8125,-1.375,-0.125,0.37200927734375,0.3936767578125,-0.47003173828125,0.6968994140625,-18.875,6.875,-13.5625,8.81,-3.55,2.43
353.31,453527.231889855,28,3,3,3,3,8.75,-3.67,2.49,-0.05,-0.11,0.07,-6.25,-1.1875,-0.125,0.37213134765625,0.3935546875,-0.470458984375,0.6966552734375,-18.875,6.875,-13.5625,8.81,-3.55,2.42
353.32,453527.245454908,28,3,3,3,3,8.79,-3.68,2.44,-0.01,-0.12,0.02,-5.75,-0.8125,0.0,0.3739013671875,0.39227294921875,-0.4718017578125,0.69549560546875,-18.1875,7.25,-13.5625,8.81,-3.55,2.42
353.33,453527.245454908,28,3,3,3,3,8.79,-3.68,2.42,-0.01,-0.12,0.0,-5.25,0.0,0.0,0.37408447265625,0.39208984375,-0.47210693359375,0.6953125,-18.1875,7.25,-13.5625,8.81,-3.56,2.42
353.34,453527.275650536,28,3,3,3,3,8.73,-3.67,2.36,-0.07,-0.11,-0.05,-4.5,0.5625,-0.125,0.374267578125,0.391845703125,-0.47235107421875,0.69512939453125,-18.1875,7.25,-13.5625,8.81,-3.56,2.41
353.35,453527.275650536,28,3,3,3,3,8.7,-3.59,2.39,-0.1,-0.02,-0.02,-4.0625,0.875,-0.3125,0.37445068359375,0.39166259765625,-0.47259521484375,0.69500732421875,-18.1875,7.25,-13.5625,8.8,-3.56,2.41
353.36,453527.289883402,28,3,3,3,3,8.67,-3.52,2.44,-0.13,0.04,0.03,-4.375,1.125,-0.6875,0.37469482421875,0.3914794921875,-0.4727783203125,0.69488525390625,-18.1875,7.25,-13.5625,8.8,-3.56,2.41
353.37,453527.289883402,28,3,3,3,3,8.76,-3.52,2.45,-0.04,0.04,0.04,-5.125,1.0625,-1.3125,0.375,0.3912353515625,-0.47308349609375,0.69464111328125,-19.25,6.1875,-13.5625,8.8,-3.56,2.41
353.38,453527.305846633,28,3,3,3,3,8.76,-3.54,2.43,-0.04,0.02,0.02,-5.75,1.1875,-1.3125,0.3753662109375,0.39105224609375,-0.47332763671875,0.69439697265625,-19.25,6.1875,-13.5625,8.81,-3.56,2.41
353.39,453527.305846633,28,3,3,3,3,8.83,-3.58,2.41,0.02,-0.01,0.0,-5.875,1.5,-1.125,0.37567138671875,0.39080810546875,-0.47357177734375,0.69415283203125,-19.25,6.1875,-13.5625,8.81,-3.56,2.41
353.4,453527.334815854,28,3,3,3,3,8.83,-3.69,2.42,0.02,-0.12,0.01,-5.5625,1.9375,-0.625,0.3759765625,0.3905029296875,-0.473876953125,0.6939697265625,-19.25,6.1875,-13.5625,8.8,-3.56,2.41
353.41,453527.334815854,28,3,3,3,3,8.79,-3.82,2.43,-0.01,-0.25,0.02,-4.6875,2.625,-0.0625,0.37628173828125,0.39019775390625,-0.47406005859375,0.69384765625,-19.25,6.1875,-13.5625,8.8,-3.57,2.41
353.42,453527.349900283,28,3,3,3,3,8.72,-3.83,2.46,-0.07,-0.26,0.04,-3.5,3.4375,0.1875,0.37677001953125,0.38958740234375,-0.474365234375,0.69366455078125,-19.25,6.5625,-13.1875,8.8,-3.57,2.41
353.43,453527.349900283,28,3,3,3,3,8.72,-3.79,2.48,-0.07,-0.22,0.05,-2.4375,4.25,1.0625,0.376953125,0.38916015625,-0.47442626953125,0.69378662109375,-19.25,6.5625,-13.1875,8.8,-3.57,2.42
353.44,453527.367612108,28,3,3,3,3,8.66,-3.74,2.56,-0.13,-0.15,0.13,-1.625,4.0,1.375,0.3770751953125,0.3887939453125,-0.4744873046875,0.6939697265625,-19.25,6.5625,-13.1875,8.8,-3.58,2.42
353.45,453527.367612108,28,3,3,3,3,8.6,-3.69,2.48,-0.18,-0.1,0.05,-1.5625,3.5,1.6875,0.37713623046875,0.38836669921875,-0.47454833984375,0.694091796875,-19.25,6.5625,-13.1875,8.79,-3.58,2.43
353.46,453527.397130913,28,3,3,3,3,8.62,-3.69,2.39,-0.16,-0.1,-0.04,-2.375,3.0,2.25,0.377197265625,0.38800048828125,-0.47467041015625,0.69415283203125,-19.25,6.5625,-13.1875,8.79,-3.59,2.43
353.47,453527.397130913,28,3,3,3,3,8.65,-3.69,2.36,-0.13,-0.1,-0.07,-2.6875,2.625,2.625,0.377685546875,0.38726806640625,-0.47509765625,0.69403076171875,-18.875,6.5625,-13.1875,8.79,-3.59,2.43
353.48,453527.409804977,28,3,3,3,3,8.7,-3.71,2.35,-0.08,-0.11,-0.08,-3.0625,2.125,2.9375,0.37762451171875,0.38690185546875,-0.475341796875,0.69403076171875,-18.875,6.5625,-13.1875,8.78,-3.6,2.43
353.49,453527.409804977,28,3,3,3,3,8.69,-3.85,2.34,-0.08,-0.23,-0.09,-2.8125,1.375,3.3125,0.3775634765625,0.38653564453125,-0.47564697265625,0.694091796875,-18.875,6.5625,-13.1875,8.78,-3.61,2.43
353.5,453527.425424978,28,3,3,3,3,8.64,-3.92,2.41,-0.13,-0.3,-0.02,-2.5,0.875,3.375,0.37738037109375,0.38623046875,-0.4759521484375,0.69415283203125,-18.875,6.5625,-13.1875,8.78,-3.62,2.43
353.51,453527.425424978,28,3,3,3,3,8.57,-3.98,2.44,-0.2,-0.35,0.0,-2.25,0.6875,3.5,0.377197265625,0.3858642578125,-0.47625732421875,0.69427490234375,-18.875,6.5625,-13.1875,8.77,-3.63,2.43
353.52,453527.4550467,28,3,3,3,3,8.48,-3.97,2.44,-0.29,-0.33,0.0,-1.9375,0.4375,3.8125,0.3778076171875,0.38494873046875,-0.47711181640625,0.69390869140625,-18.875,7.25,-12.375,8.77,-3.64,2.43
353.53,453527.4550467,28,3,3,3,3,8.43,-3.85,2.41,-0.33,-0.2,-0.02,-1.75,0.125,4.3125,0.37750244140625,0.38458251953125,-0.4774169921875,0.69403076171875,-18.875,7.25,-12.375,8.76,-3.65,2.43
353.54,453527.470352795,28,3,3,3,3,8.43,-3.75,2.38,-0.33,-0.09,-0.04,-1.8125,-0.1875,4.5,0.377197265625,0.38427734375,-0.47772216796875,0.69415283203125,-18.875,7.25,-12.375,8.76,-3.66,2.43
353.55,453527.470352795,28,3,3,3,3,8.43,-3.69,2.36,-0.33,-0.02,-0.07,-2.1875,-1.125,4.8125,0.37689208984375,0.384033203125,-0.47808837890625,0.6942138671875,-18.875,7.25,-12.375,8.76,-3.67,2.43
353.56,453527.48502514,28,3,3,3,3,8.46,-3.65,2.31,-0.29,0.02,-0.1,-2.3125,-2.0,5.125,0.3765869140625,0.3837890625,-0.478515625,0.6942138671875,-18.875,7.25,-12.375,8.75,-3.68,2.42
353.57,453527.48502514,28,3,3,3,3,8.47,-3.71,2.26,-0.28,-0.02,-0.15,-2.375,-3.0625,5.1875,0.37689208984375,0.3831787109375,-0.4793701171875,0.69378662109375,-18.875,7.25,-12.375,8.75,-3.68,2.42
353.58,453527.514551029,28,3,3,3,3,8.5,-3.74,2.3,-0.24,-0.04,-0.1,-2.1875,-3.8125,5.1875,0.37646484375,0.38311767578125,-0.47979736328125,0.6937255859375,-18.875,7.25,-12.375,8.75,-3.69,2.41
353.59,453527.514551029,28,3,3,3,3,8.51,-3.76,2.33,-0.23,-0.05,-0.07,-1.8125,-4.3125,5.0,0.37603759765625,0.38311767578125,-0.480224609375,0.69366455078125,-18.875,7.25,-12.375,8.75,-3.7,2.4
353.6,453527.530971499,28,3,3,3,3,8.59,-3.8,2.33,-0.16,-0.09,-0.06,-1.25,-4.5,4.5625,0.3756103515625,0.38311767578125,-0.48065185546875,0.69366455078125,-18.875,7.25,-12.375,8.75,-3.71,2.39
353.61,453527.530971499,28,3,3,3,3,8.6,-3.82,2.31,-0.14,-0.1,-0.07,-0.6875,-4.9375,4.375,0.3751220703125,0.3831787109375,-0.48101806640625,0.693603515625,-18.875,7.25,-12.375,8.75,-3.72,2.38
353.62,453527.544610615,28,3,3,3,3,8.64,-3.83,2.33,-0.1,-0.1,-0.05,0.0,-4.3125,4.0625,0.37567138671875,0.382568359375,-0.48187255859375,0.69305419921875,-18.1875,7.25,-13.1875,8.75,-3.73,2.38
353.63,453527.544610615,28,3,3,3,3,8.68,-3.81,2.32,-0.06,-0.07,-0.04,0.5,-3.4375,3.8125,0.375244140625,0.382568359375,-0.48211669921875,0.69305419921875,-18.1875,7.25,-13.1875,8.74,-3.73,2.37
353.64,453527.574659837,28,3,3,3,3,8.71,-3.77,2.23,-0.03,-0.02,-0.13,1.0,-2.625,3.5625,0.3748779296875,0.38262939453125,-0.4822998046875,0.693115234375,-18.1875,7.25,-13.1875,8.74,-3.74,2.37
353.65,453527.574659837,28,3,3,3,3,8.64,-3.74,2.26,-0.1,0.0,-0.1,1.5625,-1.9375,3.1875,0.37457275390625,0.38262939453125,-0.482421875,0.6932373046875,-18.1875,7.25,-13.1875,8.74,-3.74,2.37
353.66,453527.589691453,28,3,3,3,3,8.58,-3.71,2.3,-0.15,0.03,-0.06,2.0625,-1.5,2.4375,0.374267578125,0.3826904296875,-0.482421875,0.693359375,-18.1875,7.25,-13.1875,8.74,-3.75,2.36
353.67,453527.589691453,28,3,3,3,3,8.49,-3.66,2.33,-0.25,0.08,-0.03,2.4375,-1.4375,1.8125,0.37371826171875,0.38299560546875,-0.48223876953125,0.693603515625,-20.0625,6.5625,-13.5625,8.74,-3.75,2.36
353.68,453527.605067496,28,3,3,3,3,8.49,-3.7,2.31,-0.25,0.04,-0.05,2.4375,-1.6875,1.0,0.37353515625,0.38311767578125,-0.482177734375,0.69366455078125,-20.0625,6.5625,-13.5625,8.74,-3.75,2.36
353.69,453527.605067496,28,3,3,3,3,8.52,-3.71,2.26,-0.22,0.04,-0.09,2.375,-2.125,0.3125,0.37335205078125,0.38330078125,-0.48211669921875,0.6937255859375,-20.0625,6.5625,-13.5625,8.74,-3.75,2.36
353.7,453527.651079844,28,3,3,3,3,8.53,-3.74,2.34,-0.21,0.01,-0.02,2.0,-2.5625,-0.25,0.3731689453125,0.383544921875,-0.4820556640625,0.6937255859375,-20.0625,6.5625,-13.5625,8.74,-3.75,2.36
353.71,453527.651079844,28,3,3,3,3,8.59,-3.85,2.45,-0.15,-0.1,0.09,1.4375,-2.875,-0.6875,0.373046875,0.3837890625,-0.4820556640625,0.69366455078125,-20.0625,6.5625,-13.5625,8.74,-3.75,2.36
353.72,453527.657945314,28,3,3,3,3,8.68,-3.93,2.38,-0.06,-0.18,0.02,1.4375,-2.8125,-1.375,0.3729248046875,0.384033203125,-0.4820556640625,0.693603515625,-19.25,6.875,-12.0625,8.74,-3.74,2.35
353.73,453527.657945314,28,3,3,3,3,8.78,-3.98,2.32,0.03,-0.23,-0.03,1.5625,-2.0625,-1.8125,0.37286376953125,0.38421630859375,-0.48199462890625,0.69354248046875,-19.25,6.875,-12.0625,8.75,-3.74,2.35
353.74,453527.664607971,28,3,3,3,3,8.84,-4.01,2.34,0.09,-0.27,-0.01,2.0625,-1.625,-1.875,0.372802734375,0.38446044921875,-0.48187255859375,0.69354248046875,-19.25,6.875,-12.0625,8.75,-3.74,2.35
353.75,453527.664607971,28,3,3,3,3,8.88,-4.06,2.48,0.13,-0.32,0.13,2.8125,-1.125,-2.0625,0.372802734375,0.38470458984375,-0.481689453125,0.69354248046875,-19.25,6.875,-12.0625,8.75,-3.73,2.35
353.76,453527.69554464,28,3,3,3,3,8.83,-4.07,2.53,0.08,-0.34,0.18,3.5,-0.9375,-2.0625,0.37274169921875,0.38494873046875,-0.4814453125,0.693603515625,-19.25,6.875,-12.0625,8.75,-3.73,2.35
353.77,453527.69554464,28,3,3,3,3,8.79,-4.08,2.51,0.03,-0.35,0.15,4.125,-0.625,-1.75,0.372802734375,0.38507080078125,-0.481201171875,0.693603515625,-18.875,6.875,-12.875,8.75,-3.73,2.35
353.78,453527.709702558,28,3,3,3,3,8.74,-4.09,2.49,-0.01,-0.36,0.13,5.0625,0.0,-1.125,0.3726806640625,0.38519287109375,-0.48095703125,0.69384765625,-18.875,6.875,-12.875,8.75,-3.72,2.36
353.79,453527.709702558,28,3,3,3,3,8.69,-4.04,2.46,-0.05,-0.31,0.09,6.0625,0.875,-0.4375,0.3724365234375,0.38525390625,-0.4805908203125,0.6942138671875,-18.875,6.875,-12.875,8.75,-3.72,2.36
353.8,453527.724450529,28,3,3,3,3,8.7,-3.99,2.43,-0.04,-0.26,0.05,6.625,1.625,0.0,0.3721923828125,0.38525390625,-0.48016357421875,0.694580078125,-18.875,6.875,-12.875,8.75,-3.72,2.37
353.81,453527.724450529,28,3,3,3,3,8.71,-3.94,2.46,-0.04,-0.21,0.07,6.875,1.8125,0.0625,0.37200927734375,0.38531494140625,-0.479736328125,0.69500732421875,-18.875,6.875,-12.875,8.75,-3.72,2.38
353.82,453527.756298917,28,3,3,3,3,8.7,-3.88,2.49,-0.04,-0.15,0.1,6.9375,1.9375,0.125,0.37274169921875,0.38470458984375,-0.47979736328125,0.69488525390625,-18.875,7.5625,-12.875,8.75,-3.72,2.38
353.83,453527.756298917,28,3,3,3,3,8.57,-3.77,2.48,-0.17,-0.05,0.09,6.8125,2.0,0.375,0.37255859375,0.384765625,-0.47930908203125,0.69525146484375,-18.875,7.5625,-12.875,8.74,-3.72,2.39
353.84,453527.770894179,28,3,3,3,3,8.52,-3.74,2.44,-0.21,-0.02,0.03,6.6875,2.5,0.625,0.37237548828125,0.384765625,-0.47882080078125,0.6956787109375,-18.875,7.5625,-12.875,8.74,-3.72,2.4
353.85,453527.770894179,28,3,3,3,3,8.49,-3.71,2.4,-0.24,0.0,-0.01,6.25,2.75,1.25,0.3721923828125,0.38470458984375,-0.47845458984375,0.69610595703125,-18.875,7.5625,-12.875,8.74,-3.72,2.41
353.86,453527.784912878,28,3,3,3,3,8.42,-3.68,2.37,-0.31,0.03,-0.05,5.875,3.0625,1.6875,0.37200927734375,0.3846435546875,-0.47802734375,0.696533203125,-18.875,7.5625,-12.875,8.74,-3.72,2.42
353.87,453527.784912878,28,3,3,3,3,8.45,-3.63,2.37,-0.28,0.09,-0.06,5.375,2.625,1.75,0.3729248046875,0.3837890625,-0.478271484375,0.6962890625,-18.5625,7.5625,-13.1875,8.74,-3.72,2.43
353.88,453527.814686579,28,3,3,3,3,8.43,-3.6,2.38,-0.3,0.12,-0.05,4.5625,2.125,1.5,0.372802734375,0.38372802734375,-0.47796630859375,0.6966552734375,-18.5625,7.5625,-13.1875,8.73,-3.72,2.43
353.89,453527.814686579,28,3,3,3,3,8.44,-3.59,2.36,-0.29,0.13,-0.07,3.4375,1.5,1.125,0.3726806640625,0.38372802734375,-0.477783203125,0.69683837890625,-18.5625,7.5625,-13.1875,8.73,-3.72,2.44
353.9,453527.845331062,28,3,3,3,3,8.53,-3.58,2.38,-0.19,0.14,-0.05,2.375,0.375,0.8125,0.37249755859375,0.3837890625,-0.4776611328125,0.697021484375,-18.5625,7.5625,-13.1875,8.73,-3.72,2.44
353.91,453527.845331062,28,3,3,3,3,8.57,-3.63,2.4,-0.15,0.09,-0.03,1.4375,-0.75,0.625,0.37237548828125,0.38385009765625,-0.47760009765625,0.697021484375,-18.5625,7.5625,-13.1875,8.73,-3.72,2.44
353.92,453527.851989708,28,3,3,3,3,8.59,-3.71,2.42,-0.14,0.01,-0.01,0.9375,-1.1875,0.625,0.3721923828125,0.38397216796875,-0.4775390625,0.6971435546875,-18.5625,6.1875,-12.5,8.73,-3.72,2.44
353.93,453527.851989708,28,3,3,3,3,8.59,-3.81,2.43,-0.14,-0.08,0.0,0.5,-1.0,0.625,0.3720703125,0.38397216796875,-0.47760009765625,0.6971435546875,-18.5625,6.1875,-12.5,8.73,-3.72,2.44
353.94,453527.87466169,28,3,3,3,3,8.66,-3.88,2.46,-0.07,-0.15,0.02,0.5,-1.0,0.875,0.3719482421875,0.384033203125,-0.47772216796875,0.6971435546875,-18.5625,6.1875,-12.5,8.73,-3.73,2.43
353.95,453527.87466169,28,3,3,3,3,8.68,-3.9,2.47,-0.05,-0.17,0.03,0.8125,-0.6875,1.1875,0.371826171875,0.384033203125,-0.47772216796875,0.69720458984375,-18.5625,6.1875,-12.5,8.73,-3.73,2.43
353.96,453527.889775806,28,3,3,3,3,8.73,-3.88,2.46,0.0,-0.15,0.02,1.1875,-0.5625,1.4375,0.37164306640625,0.38397216796875,-0.47772216796875,0.697265625,-18.5625,6.1875,-12.5,8.73,-3.73,2.43
353.97,453527.889775806,28,3,3,3,3,8.78,-3.87,2.41,0.04,-0.13,-0.02,1.9375,-1.0,1.4375,0.3719482421875,0.3836669921875,-0.47802734375,0.69708251953125,-17.875,6.5625,-13.1875,8.73,-3.73,2.43
353.98,453527.903981849,28,3,3,3,3,8.69,-3.87,2.52,-0.04,-0.13,0.08,1.875,-0.625,1.0625,0.37176513671875,0.38372802734375,-0.47796630859375,0.69720458984375,-17.875,6.5625,-13.1875,8.73,-3.73,2.43
353.99,453527.903981849,28,3,3,3,3,8.66,-3.87,2.42,-0.06,-0.13,-0.01,1.3125,-0.1875,0.6875,0.3717041015625,0.38372802734375,-0.4779052734375,0.697265625,-17.875,6.5625,-13.1875,8.73,-3.73,2.43
354.0,453527.934833623,28,3,3,3,3,8.66,-3.8,2.24,-0.06,-0.06,-0.19,1.8125,-0.6875,0.4375,0.37158203125,0.3837890625,-0.47784423828125,0.69732666015625,-17.875,6.5625,-13.1875,8.73,-3.73,2.43
354.01,453527.934833623,28,3,3,3,3,8.6,-3.74,2.29,-0.12,0.0,-0.14,2.8125,-0.5,0.5625,0.37139892578125,0.38385009765625,-0.47772216796875,0.697509765625,-17.875,6.5625,-13.1875,8.73,-3.73,2.44
354.02,453527.949677218,28,3,3,3,3,8.59,-3.75,2.36,-0.13,-0.01,-0.08,2.9375,-0.5,0.75,0.3720703125,0.38336181640625,-0.47802734375,0.69720458984375,-18.875,7.5625,-12.5,8.73,-3.73,2.44
354.03,453527.949677218,28,3,3,3,3,8.58,-3.77,2.36,-0.14,-0.03,-0.07,2.25,-1.1875,0.625,0.37188720703125,0.38348388671875,-0.47796630859375,0.697265625,-18.875,7.5625,-12.5,8.73,-3.73,2.44
354.04,453527.964389198,28,3,3,3,3,8.57,-3.75,2.32,-0.15,-0.01,-0.11,1.875,-1.8125,0.25,0.3717041015625,0.38360595703125,-0.47796630859375,0.697265625,-18.875,7.5625,-12.5,8.73,-3.73,2.43
354.05,453527.964389198,28,3,3,3,3,8.56,-3.74,2.43,-0.16,0.0,0.0,1.6875,-2.0625,0.0625,0.37158203125,0.3837890625,-0.4779052734375,0.697265625,-18.875,7.5625,-12.5,8.73,-3.73,2.43
354.06,453527.993985816,28,3,3,3,3,8.54,-3.75,2.45,-0.19,-0.01,0.01,1.8125,-2.625,0.0,0.37139892578125,0.384033203125,-0.4779052734375,0.697265625,-18.875,7.5625,-12.5,8.73,-3.73,2.43
354.07,453527.993985816,28,3,3,3,3,8.54,-3.77,2.31,-0.18,-0.03,-0.11,2.5,-3.25,0.0625,0.37139892578125,0.38409423828125,-0.47802734375,0.6971435546875,-18.5625,6.875,-12.5,8.73,-3.73,2.43
354.08,453528.009714203,28,3,3,3,3,8.53,-3.76,2.29,-0.2,-0.02,-0.13,3.0,-4.0,0.125,0.37115478515625,0.38446044921875,-0.47796630859375,0.6971435546875,-18.5625,6.875,-12.5,8.73,-3.73,2.42
354.09,453528.009714203,28,3,3,3,3,8.58,-3.79,2.25,-0.15,-0.06,-0.16,2.6875,-4.6875,0.4375,0.370849609375,0.38482666015625,-0.47796630859375,0.69708251953125,-18.5625,6.875,-12.5,8.73,-3.73,2.42
354.1,453528.025455038,28,3,3,3,3,8.57,-3.81,2.28,-0.16,-0.08,-0.12,2.1875,-5.3125,0.5625,0.3704833984375,0.3851318359375,-0.47808837890625,0.697021484375,-18.5625,6.875,-12.5,8.73,-3.73,2.41
354.11,453528.025455038,28,3,3,3,3,8.56,-3.84,2.3,-0.17,-0.1,-0.1,2.0,-5.8125,0.8125,0.37005615234375,0.385498046875,-0.47821044921875,0.69696044921875,-18.5625,6.875,-12.5,8.74,-3.73,2.4
354.12,453528.05530478,28,3,3,3,3,8.57,-3.83,2.27,-0.17,-0.09,-0.11,2.0625,-5.8125,1.25,0.36944580078125,0.385986328125,-0.478271484375,0.69696044921875,-18.875,6.1875,-12.875,8.74,-3.74,2.39
354.13,453528.05530478,28,3,3,3,3,8.61,-3.82,2.23,-0.12,-0.08,-0.15,2.1875,-5.3125,1.5625,0.3690185546875,0.38629150390625,-0.4783935546875,0.6968994140625,-18.875,6.1875,-12.875,8.74,-3.74,2.39
354.14,453528.06991723,28,3,3,3,3,8.66,-3.83,2.19,-0.07,-0.08,-0.19,2.1875,-5.1875,1.75,0.36859130859375,0.3865966796875,-0.47857666015625,0.6968994140625,-18.875,6.1875,-12.875,8.74,-3.74,2.38
354.15,453528.06991723,28,3,3,3,3,8.71,-3.82,2.21,-0.03,-0.07,-0.16,2.3125,-4.3125,1.5625,0.36822509765625,0.38690185546875,-0.4786376953125,0.69683837890625,-18.875,6.1875,-12.875,8.74,-3.74,2.37
354.16,453528.08471171,28,3,3,3,3,8.76,-3.8,2.2,0.02,-0.05,-0.16,2.3125,-3.875,1.5625,0.36785888671875,0.38714599609375,-0.478759765625,0.69683837890625,-18.875,6.1875,-12.875,8.74,-3.75,2.37
354.17,453528.08471171,28,3,3,3,3,8.76,-3.81,2.18,0.01,-0.06,-0.17,2.25,-3.4375,1.25,0.367919921875,0.3870849609375,-0.47900390625,0.6966552734375,-18.1875,6.5625,-13.1875,8.74,-3.75,2.36
354.18,453528.115081974,28,3,3,3,3,8.76,-3.8,2.18,0.02,-0.05,-0.17,2.1875,-3.0625,0.9375,0.36761474609375,0.3873291015625,-0.47906494140625,0.6966552734375,-18.1875,6.5625,-13.1875,8.74,-3.75,2.36
354.19,453528.115081974,28,3,3,3,3,8.76,-3.8,2.17,0.02,-0.05,-0.18,1.9375,-2.8125,0.6875,0.36737060546875,0.3875732421875,-0.47906494140625,0.6966552734375,-18.1875,6.5625,-13.1875,8.74,-3.75,2.35
354.2,453528.130511611,28,3,3,3,3,8.71,-3.77,2.2,-0.03,-0.01,-0.14,1.5,-2.4375,0.4375,0.3671875,0.38775634765625,-0.47906494140625,0.69659423828125,-18.1875,6.5625,-13.1875,8.74,-3.75,2.35
354.21,453528.130511611,28,3,3,3,3,8.67,-3.78,2.23,-0.07,-0.03,-0.12,0.875,-2.25,0.375,0.3670654296875,0.387939453125,-0.4791259765625,0.69659423828125,-18.1875,6.5625,-13.1875,8.74,-3.75,2.35
354.22,453528.14459906,28,3,3,3,3,8.64,-3.82,2.26,-0.1,-0.07,-0.08,0.625,-2.0625,0.375,0.36749267578125,0.3876953125,-0.4794921875,0.69622802734375,-18.5625,6.875,-13.1875,8.75,-3.75,2.34
354.23,453528.14459906,28,3,3,3,3,8.62,-3.84,2.26,-0.12,-0.08,-0.08,0.1875,-1.8125,0.25,0.36737060546875,0.3878173828125,-0.47955322265625,0.6961669921875,-18.5625,6.875,-13.1875,8.75,-3.75,2.34
354.24,453528.174515521,28,3,3,3,3,8.62,-3.83,2.3,-0.12,-0.07,-0.04,0.1875,-1.625,0.125,0.3673095703125,0.38787841796875,-0.47967529296875,0.69610595703125,-18.5625,6.875,-13.1875,8.75,-3.75,2.34
354.25,453528.174515521,28,3,3,3,3,8.63,-3.85,2.3,-0.11,-0.09,-0.03,0.0,-1.75,0.0,0.3671875,0.38800048828125,-0.479736328125,0.696044921875,-18.5625,6.875,-13.1875,8.75,-3.75,2.34
354.26,453528.190943179,28,3,3,3,3,8.65,-3.82,2.25,-0.09,-0.07,-0.07,0.0,-2.1875,0.0,0.3670654296875,0.38812255859375,-0.47979736328125,0.69598388671875,-18.5625,6.875,-13.1875,8.75,-3.75,2.33
354.27,453528.190943179,28,3,3,3,3,8.65,-3.79,2.44,-0.1,-0.04,0.1,0.125,-2.5,-0.0625,0.366943359375,0.38824462890625,-0.47991943359375,0.6959228515625,-19.25,6.875,-12.0625,8.75,-3.75,2.33
354.28,453528.20580115,28,3,3,3,3,8.59,-3.86,2.45,-0.16,-0.1,0.12,0.0,-2.625,0.0625,0.3668212890625,0.38836669921875,-0.47998046875,0.69586181640625,-19.25,6.875,-12.0625,8.75,-3.75,2.32
354.29,453528.20580115,28,3,3,3,3,8.6,-3.88,2.35,-0.14,-0.13,0.03,-0.375,-3.1875,0.25,0.36669921875,0.3885498046875,-0.4801025390625,0.69573974609375,-19.25,6.875,-12.0625,8.75,-3.75,2.32
354.3,453528.235658705,28,3,3,3,3,8.63,-3.9,2.35,-0.12,-0.15,0.03,-0.25,-2.625,0.4375,0.3665771484375,0.388671875,-0.480224609375,0.6956787109375,-19.25,6.875,-12.0625,8.75,-3.75,2.32
354.31,453528.235658705,28,3,3,3,3,8.69,-3.87,2.47,-0.06,-0.11,0.15,-0.25,-2.875,0.8125,0.3663330078125,0.38873291015625,-0.4803466796875,0.69561767578125,-19.25,6.875,-12.0625,8.75,-3.76,2.31
354.32,453528.265274906,28,3,3,3,3,8.68,-3.82,2.5,-0.06,-0.06,0.19,0.0,-2.9375,0.625,0.36669921875,0.38848876953125,-0.48077392578125,0.6953125,-18.5625,6.875,-12.875,8.75,-3.76,2.31
354.33,453528.265274906,28,3,3,3,3,8.7,-3.81,2.5,-0.05,-0.05,0.19,0.25,-3.125,0.375,0.3665771484375,0.38861083984375,-0.4808349609375,0.69525146484375,-18.5625,6.875,-12.875,8.75,-3.76,2.3
354.34,453528.270524281,28,3,3,3,3,8.68,-3.82,2.48,-0.07,-0.05,0.18,0.0625,-3.5,0.1875,0.36639404296875,0.3887939453125,-0.48089599609375,0.6951904296875,-18.5625,6.875,-12.875,8.75,-3.76,2.3
354.35,453528.270524281,28,3,3,3,3,8.68,-3.82,2.44,-0.07,-0.05,0.14,-0.25,-3.5625,-0.0625,0.36627197265625,0.388916015625,-0.48101806640625,0.69512939453125,-18.5625,6.875,-12.875,8.75,-3.76,2.3
354.36,453528.309761472,28,3,3,3,3,8.68,-3.83,2.39,-0.07,-0.06,0.09,-0.625,-3.5,-0.1875,0.36614990234375,0.38909912109375,-0.48114013671875,0.69500732421875,-18.5625,6.875,-12.875,8.75,-3.76,2.29
354.37,453528.309761472,28,3,3,3,3,8.68,-3.84,2.37,-0.07,-0.07,0.08,-1.0,-3.375,-0.375,0.36602783203125,0.38922119140625,-0.4813232421875,0.69488525390625,-18.875,6.5625,-12.0625,8.76,-3.76,2.29
354.38,453528.316857879,28,3,3,3,3,8.7,-3.84,2.35,-0.05,-0.07,0.06,-1.3125,-2.5,-0.3125,0.36590576171875,0.3892822265625,-0.48150634765625,0.69476318359375,-18.875,6.5625,-12.0625,8.76,-3.76,2.28
354.39,453528.316857879,28,3,3,3,3,8.77,-3.92,2.27,0.01,-0.16,0.0,-1.4375,-1.5,-0.1875,0.36590576171875,0.38934326171875,-0.48162841796875,0.69464111328125,-18.875,6.5625,-12.0625,8.76,-3.76,2.28
354.4,453528.324397151,28,3,3,3,3,8.77,-3.9,2.26,0.01,-0.14,-0.01,-1.125,-0.4375,0.0,0.36590576171875,0.3892822265625,-0.481689453125,0.69464111328125,-18.875,6.5625,-12.0625,8.76,-3.76,2.28
354.41,453528.324397151,28,3,3,3,3,8.79,-3.9,2.27,0.03,-0.13,0.0,-0.9375,0.875,-0.0625,0.365966796875,0.38916015625,-0.48175048828125,0.69464111328125,-18.875,6.5625,-12.0625,8.76,-3.76,2.28
354.42,453528.353328925,28,3,3,3,3,8.79,-3.88,2.25,0.03,-0.11,-0.02,-0.875,1.3125,-0.25,0.3660888671875,0.3890380859375,-0.4818115234375,0.69464111328125,-18.875,6.5625,-12.5,8.75,-3.77,2.28
354.43,453528.353328925,28,3,3,3,3,8.7,-3.8,2.25,-0.05,-0.03,-0.03,-0.875,1.9375,-0.5,0.36614990234375,0.388916015625,-0.4818115234375,0.69464111328125,-18.875,6.5625,-12.5,8.75,-3.77,2.28
354.44,453528.369121583,28,3,3,3,3,8.67,-3.78,2.22,-0.08,-0.01,-0.06,-1.0625,2.4375,-0.75,0.3663330078125,0.38873291015625,-0.48175048828125,0.69464111328125,-18.875,6.5625,-12.5,8.75,-3.77,2.29
354.45,453528.369121583,28,3,3,3,3,8.62,-3.76,2.19,-0.13,0.0,-0.09,-1.375,2.625,-1.0625,0.3665771484375,0.3885498046875,-0.48175048828125,0.69464111328125,-18.875,6.5625,-12.5,8.75,-3.76,2.29
354.46,453528.401459763,28,3,3,3,3,8.61,-3.78,2.21,-0.14,-0.02,-0.08,-1.5,2.75,-1.125,0.3668212890625,0.38836669921875,-0.48175048828125,0.69464111328125,-18.875,6.5625,-12.5,8.75,-3.76,2.29
354.47,453528.401459763,28,3,3,3,3,8.61,-3.76,2.19,-0.13,0.0,-0.1,-1.75,3.0625,-1.1875,0.3681640625,0.387451171875,-0.4822998046875,0.694091796875,-18.5625,7.5625,-12.875,8.75,-3.76,2.29
354.48,453528.413581899,28,3,3,3,3,8.64,-3.77,2.2,-0.1,0.0,-0.1,-1.75,3.1875,-0.5625,0.36834716796875,0.38720703125,-0.4822998046875,0.694091796875,-18.5625,7.5625,-12.875,8.75,-3.76,2.3
354.49,453528.413581899,28,3,3,3,3,8.68,-3.88,2.2,-0.07,-0.12,-0.1,-1.3125,3.375,0.125,0.3685302734375,0.386962890625,-0.4822998046875,0.69415283203125,-18.5625,7.5625,-12.875,8.75,-3.76,2.3
354.5,453528.430181797,28,3,3,3,3,8.71,-4.01,2.19,-0.04,-0.24,-0.11,-1.4375,2.75,0.5,0.36865234375,0.38671875,-0.48236083984375,0.69415283203125,-18.5625,7.5625,-12.875,8.75,-3.77,2.31
354.51,453528.430181797,28,3,3,3,3,8.66,-4.02,2.21,-0.08,-0.25,-0.1,-1.25,2.625,0.5,0.3687744140625,0.386474609375,-0.482421875,0.6942138671875,-18.5625,7.5625,-12.875,8.75,-3.77,2.31
354.52,453528.447299455,28,3,3,3,3,8.61,-3.96,2.26,-0.13,-0.19,-0.04,-1.0,2.375,0.375,0.36895751953125,0.38616943359375,-0.4825439453125,0.6942138671875,-18.5625,6.5625,-13.1875,8.74,-3.77,2.31
354.53,453528.447299455,28,3,3,3,3,8.58,-3.9,2.28,-0.16,-0.13,-0.03,-0.9375,2.25,0.375,0.3690185546875,0.38592529296875,-0.48260498046875,0.6942138671875,-18.5625,6.5625,-13.1875,8.74,-3.77,2.31
354.54,453528.474727947,28,3,3,3,3,8.56,-3.81,2.24,-0.18,-0.03,-0.07,-1.0625,2.5,0.1875,0.369140625,0.3857421875,-0.48260498046875,0.69427490234375,-18.5625,6.5625,-13.1875,8.74,-3.77,2.32
354.55,453528.474727947,28,3,3,3,3,8.56,-3.81,2.23,-0.17,-0.03,-0.08,-1.25,1.9375,0.375,0.3692626953125,0.38555908203125,-0.482666015625,0.69427490234375,-18.5625,6.5625,-13.1875,8.74,-3.78,2.32
354.56,453528.505158992,28,3,3,3,3,8.57,-3.83,2.25,-0.16,-0.04,-0.07,-1.3125,1.4375,0.75,0.3692626953125,0.3853759765625,-0.48272705078125,0.6943359375,-18.5625,6.5625,-13.1875,8.74,-3.78,2.32
354.57,453528.505158992,28,3,3,3,3,8.55,-3.85,2.23,-0.18,-0.06,-0.08,-1.25,1.9375,0.9375,0.36993408203125,0.384765625,-0.483154296875,0.69403076171875,-18.1875,6.875,-12.875,8.74,-3.78,2.32
354.58,453528.51155092,28,3,3,3,3,8.57,-3.93,2.23,-0.16,-0.14,-0.08,-1.5625,1.1875,1.25,0.369873046875,0.38458251953125,-0.4832763671875,0.694091796875,-18.1875,6.875,-12.875,8.74,-3.78,2.32
354.59,453528.51155092,28,3,3,3,3,8.58,-3.95,2.24,-0.15,-0.16,-0.08,-1.1875,0.8125,1.5,0.36981201171875,0.3843994140625,-0.4833984375,0.694091796875,-18.1875,6.875,-12.875,8.73,-3.79,2.32
354.6,453528.535835245,28,3,3,3,3,8.59,-3.93,2.26,-0.14,-0.14,-0.05,-1.1875,0.875,1.75,0.3697509765625,0.3841552734375,-0.48358154296875,0.69415283203125,-18.1875,6.875,-12.875,8.73,-3.79,2.32
354.61,453528.535835245,28,3,3,3,3,8.6,-3.92,2.29,-0.12,-0.12,-0.02,-1.1875,1.125,1.4375,0.3697509765625,0.38397216796875,-0.48370361328125,0.6942138671875,-18.1875,6.875,-12.875,8.73,-3.8,2.32
354.62,453528.550709986,28,3,3,3,3,8.61,-3.85,2.26,-0.11,-0.04,-0.06,-1.25,0.6875,1.0,0.370849609375,0.383056640625,-0.484375,0.693603515625,-17.875,7.5625,-12.0625,8.73,-3.8,2.32
354.63,453528.550709986,28,3,3,3,3,8.6,-3.8,2.28,-0.13,0.0,-0.04,-1.1875,0.25,0.8125,0.37078857421875,0.3829345703125,-0.4844970703125,0.693603515625,-17.875,7.5625,-12.0625,8.73,-3.8,2.32
354.64,453528.564177383,28,3,3,3,3,8.6,-3.78,2.28,-0.13,0.02,-0.04,-1.125,0.1875,0.4375,0.370849609375,0.3829345703125,-0.484619140625,0.69354248046875,-17.875,7.5625,-12.0625,8.73,-3.8,2.32
354.65,453528.564177383,28,3,3,3,3,8.61,-3.8,2.32,-0.11,0.0,0.0,-1.375,-0.0625,0.3125,0.370849609375,0.38287353515625,-0.48468017578125,0.6934814453125,-17.875,7.5625,-12.0625,8.73,-3.8,2.32
354.66,453528.594939938,28,3,3,3,3,8.6,-3.83,2.32,-0.12,-0.02,0.0,-1.6875,0.0,0.25,0.37091064453125,0.3828125,-0.48480224609375,0.69342041015625,-17.875,7.5625,-12.0625,8.73,-3.8,2.32
354.67,453528.594939938,28,3,3,3,3,8.59,-3.85,2.34,-0.14,-0.04,0.01,-1.3125,0.0,0.25,0.37164306640625,0.38226318359375,-0.48529052734375,0.6929931640625,-19.25,7.5625,-13.5625,8.73,-3.8,2.32
354.68,453528.612072805,28,3,3,3,3,8.62,-3.87,2.33,-0.1,-0.06,0.01,-1.0625,0.1875,0.25,0.3717041015625,0.3822021484375,-0.4853515625,0.6929931640625,-19.25,7.5625,-13.5625,8.73,-3.81,2.32
354.69,453528.612072805,28,3,3,3,3,8.65,-3.87,2.31,-0.07,-0.06,0.0,-0.75,0.625,0.25,0.37176513671875,0.38214111328125,-0.4853515625,0.69293212890625,-19.25,7.5625,-13.5625,8.73,-3.81,2.32
354.7,453528.624781295,28,3,3,3,3,8.7,-3.86,2.39,-0.03,-0.05,0.07,-0.5625,1.0,0.0,0.371826171875,0.38201904296875,-0.48541259765625,0.6929931640625,-19.25,7.5625,-13.5625,8.73,-3.81,2.32
354.71,453528.624781295,28,3,3,3,3,8.7,-3.85,2.41,-0.03,-0.03,0.09,-0.5,1.5,-0.0625,0.37188720703125,0.38189697265625,-0.4853515625,0.69305419921875,-19.25,7.5625,-13.5625,8.73,-3.81,2.32
354.72,453528.654485673,28,3,3,3,3,8.74,-3.8,2.44,0.01,0.0,0.11,-0.875,1.5,-0.8125,0.37225341796875,0.38165283203125,-0.4854736328125,0.69287109375,-18.1875,6.875,-12.5,8.73,-3.81,2.32
354.73,453528.654485673,28,3,3,3,3,8.71,-3.8,2.43,-0.02,0.0,0.1,-1.6875,0.9375,-1.3125,0.3724365234375,0.381591796875,-0.4854736328125,0.69281005859375,-18.1875,6.875,-12.5,8.73,-3.8,2.32
354.74,453528.669962237,28,3,3,3,3,8.66,-3.85,2.36,-0.06,-0.04,0.03,-2.0,0.6875,-1.6875,0.37261962890625,0.38153076171875,-0.48553466796875,0.69268798828125,-18.1875,6.875,-12.5,8.73,-3.8,2.32
354.75,453528.669962237,28,3,3,3,3,8.63,-3.84,2.37,-0.09,-0.03,0.04,-1.9375,0.8125,-1.8125,0.37286376953125,0.3814697265625,-0.48553466796875,0.692626953125,-18.1875,6.875,-12.5,8.73,-3.8,2.32
354.76,453528.699254636,28,3,3,3,3,8.59,-3.82,2.38,-0.14,-0.02,0.05,-1.875,1.0625,-1.8125,0.373046875,0.38140869140625,-0.485595703125,0.6925048828125,-18.1875,6.875,-12.5,8.73,-3.8,2.32
354.77,453528.699254636,28,3,3,3,3,8.57,-3.83,2.36,-0.15,-0.02,0.03,-1.8125,1.6875,-1.5,0.3736572265625,0.38104248046875,-0.48577880859375,0.6922607421875,-18.1875,6.875,-13.1875,8.73,-3.8,2.33
354.78,453528.714217711,28,3,3,3,3,8.6,-3.83,2.43,-0.12,-0.03,0.09,-2.0,2.5625,-1.3125,0.3739013671875,0.38079833984375,-0.48577880859375,0.69219970703125,-18.1875,6.875,-13.1875,8.73,-3.8,2.33
354.79,453528.714217711,28,3,3,3,3,8.6,-3.85,2.37,-0.13,-0.04,0.03,-2.4375,3.3125,-0.75,0.37420654296875,0.38055419921875,-0.48577880859375,0.69219970703125,-18.1875,6.875,-13.1875,8.73,-3.8,2.33
354.8,453528.730945785,28,3,3,3,3,8.68,-3.85,2.29,-0.04,-0.04,-0.04,-2.3125,3.8125,-0.5625,0.37445068359375,0.3802490234375,-0.48577880859375,0.6922607421875,-18.1875,6.875,-13.1875,8.73,-3.8,2.34
354.81,453528.730945785,28,3,3,3,3,8.73,-3.84,2.33,0.0,-0.03,-0.01,-1.625,3.8125,-0.4375,0.3746337890625,0.37994384765625,-0.48577880859375,0.69232177734375,-18.1875,6.875,-13.1875,8.72,-3.8,2.34
354.82,453528.743915474,28,3,3,3,3,8.75,-3.83,2.46,0.02,-0.03,0.11,-1.8125,4.4375,-0.375,0.3758544921875,0.37896728515625,-0.48626708984375,0.69183349609375,-17.875,7.5625,-12.0625,8.72,-3.8,2.35
354.83,453528.743915474,28,3,3,3,3,8.8,-3.87,2.48,0.07,-0.07,0.13,-3.4375,4.25,-1.125,0.376220703125,0.37860107421875,-0.486328125,0.69183349609375,-17.875,7.5625,-12.0625,8.72,-3.8,2.35
354.84,453528.775621363,28,3,3,3,3,8.72,-3.86,2.2,0.0,-0.06,-0.15,-4.25,4.1875,-1.375,0.37664794921875,0.3782958984375,-0.48638916015625,0.69171142578125,-17.875,7.5625,-12.0625,8.72,-3.8,2.36
354.85,453528.775621363,28,3,3,3,3,8.69,-3.88,2.2,-0.02,-0.07,-0.16,-3.8125,4.0625,-1.875,0.37701416015625,0.37799072265625,-0.4864501953125,0.691650390625,-17.875,7.5625,-12.0625,8.72,-3.8,2.36
354.86,453528.790802718,28,3,3,3,3,8.65,-3.9,2.25,-0.07,-0.1,-0.11,-2.75,4.5,-1.25,0.37738037109375,0.377685546875,-0.4864501953125,0.69158935546875,-17.875,7.5625,-12.0625,8.72,-3.8,2.36
354.87,453528.790802718,28,3,3,3,3,8.63,-3.95,2.38,-0.08,-0.14,0.01,-1.6875,4.875,-0.5625,0.377685546875,0.3773193359375,-0.48638916015625,0.69171142578125,-18.875,6.875,-12.5,8.72,-3.8,2.37
354.88,453528.804889074,28,3,3,3,3,8.5,-4.01,2.41,-0.21,-0.2,0.03,-2.0625,4.75,0.25,0.37786865234375,0.376953125,-0.48638916015625,0.6917724609375,-18.875,6.875,-12.5,8.71,-3.8,2.38
354.89,453528.804889074,28,3,3,3,3,8.46,-3.95,2.44,-0.25,-0.14,0.05,-2.625,4.5625,0.6875,0.37811279296875,0.37646484375,-0.4864501953125,0.69183349609375,-18.875,6.875,-12.5,8.71,-3.8,2.38
354.9,453528.836609337,28,3,3,3,3,8.48,-3.88,2.56,-0.22,-0.06,0.17,-3.0,4.25,1.5625,0.37823486328125,0.3759765625,-0.486572265625,0.69195556640625,-18.875,6.875,-12.5,8.71,-3.81,2.39
354.91,453528.836609337,28,3,3,3,3,8.5,-3.86,2.54,-0.2,-0.04,0.15,-3.0625,4.1875,2.375,0.37835693359375,0.37548828125,-0.4866943359375,0.69207763671875,-18.875,6.875,-12.5,8.7,-3.81,2.39
354.92,453528.849555537,28,3,3,3,3,8.58,-3.85,2.41,-0.12,-0.02,0.01,-3.1875,3.1875,2.8125,0.37896728515625,0.3746337890625,-0.48712158203125,0.69189453125,-17.5,6.875,-12.5,8.7,-3.82,2.39
354.93,453528.849555537,28,3,3,3,3,8.55,-3.92,2.31,-0.14,-0.09,-0.08,-3.125,1.6875,2.8125,0.37896728515625,0.37432861328125,-0.48736572265625,0.69195556640625,-17.5,6.875,-12.5,8.7,-3.83,2.39
354.94,453528.864850538,28,3,3,3,3,8.53,-3.94,2.28,-0.16,-0.1,-0.11,-3.125,0.8125,2.5625,0.37890625,0.3740234375,-0.48760986328125,0.69189453125,-17.5,6.875,-12.5,8.69,-3.83,2.39
354.95,453528.864850538,28,3,3,3,3,8.48,-3.98,2.33,-0.21,-0.14,-0.05,-4.125,0.0,2.25,0.37890625,0.373779296875,-0.48797607421875,0.69183349609375,-17.5,6.875,-12.5,8.69,-3.84,2.39
354.96,453528.894781062,28,3,3,3,3,8.27,-4.01,2.37,-0.42,-0.16,-0.01,-5.125,-1.5,1.9375,0.37884521484375,0.37353515625,-0.48846435546875,0.691650390625,-17.5,6.875,-12.5,8.69,-3.85,2.39
354.97,453528.894781062,28,3,3,3,3,8.24,-3.95,2.37,-0.44,-0.09,0.0,-5.25,-2.5625,1.75,0.37872314453125,0.37335205078125,-0.48895263671875,0.69140625,-17.875,6.5625,-13.1875,8.69,-3.85,2.38
354.98,453528.910760074,28,3,3,3,3,8.22,-3.93,2.39,-0.47,-0.06,0.01,-4.75,-3.125,2.25,0.37860107421875,0.373291015625,-0.48944091796875,0.69122314453125,-17.875,6.5625,-13.1875,8.69,-3.86,2.37
354.99,453528.910760074,28,3,3,3,3,8.26,-3.91,2.27,-0.42,-0.04,-0.08,-3.5625,-3.4375,3.1875,0.37841796875,0.37322998046875,-0.4898681640625,0.6910400390625,-17.875,6.5625,-13.1875,8.69,-3.86,2.36
355.0,453528.926526221,28,3,3,3,3,8.32,-3.97,2.25,-0.36,-0.09,-0.09,-3.25,-4.3125,3.75,0.37811279296875,0.37322998046875,-0.4903564453125,0.69091796875,-17.875,6.5625,-13.1875,8.69,-3.87,2.35
355.01,453528.926526221,28,3,3,3,3,8.43,-3.98,2.3,-0.25,-0.09,-0.04,-2.875,-4.5625,4.1875,0.377685546875,0.3731689453125,-0.4908447265625,0.6907958984375,-17.875,6.5625,-13.1875,8.69,-3.88,2.35
355.02,453528.955136953,28,3,3,3,3,8.49,-3.98,2.33,-0.2,-0.08,0.0,-2.375,-5.3125,3.9375,0.3773193359375,0.3731689453125,-0.4913330078125,0.69061279296875,-18.875,7.25,-12.5,8.69,-3.89,2.34
355.03,453528.955136953,28,3,3,3,3,8.59,-3.88,2.33,-0.1,0.0,0.0,-1.6875,-5.875,3.25,0.37689208984375,0.37335205078125,-0.49169921875,0.69049072265625,-18.875,7.25,-12.5,8.69,-3.89,2.33
355.04,453528.970999976,28,3,3,3,3,8.65,-3.9,2.32,-0.03,0.0,0.0,-2.125,-5.875,2.5625,0.37652587890625,0.37353515625,-0.49212646484375,0.6903076171875,-18.875,7.25,-12.5,8.69,-3.9,2.32
355.05,453528.970999976,28,3,3,3,3,8.72,-3.9,2.34,0.03,0.0,0.03,-3.0625,-5.5,1.8125,0.37628173828125,0.3736572265625,-0.4925537109375,0.6900634765625,-18.875,7.25,-12.5,8.69,-3.9,2.3
355.06,453529.015589407,28,3,3,3,3,8.74,-3.9,2.33,0.05,0.0,0.03,-3.1875,-5.0625,1.375,0.3760986328125,0.373779296875,-0.49298095703125,0.68975830078125,-18.875,7.25,-12.5,8.69,-3.91,2.29
355.07,453529.015589407,28,3,3,3,3,8.8,-3.99,2.32,0.11,-0.07,0.03,-2.9375,-4.5625,0.4375,0.37591552734375,0.3740234375,-0.4932861328125,0.6895751953125,-19.25,7.25,-12.0625,8.69,-3.91,2.29
355.08,453529.022113575,28,3,3,3,3,8.75,-3.96,2.31,0.05,-0.05,0.03,-4.5625,-3.6875,-0.875,0.3759765625,0.3741455078125,-0.49365234375,0.689208984375,-19.25,7.25,-12.0625,8.69,-3.91,2.28
355.09,453529.022113575,28,3,3,3,3,8.73,-3.89,2.26,0.03,0.01,0.0,-5.625,-2.5625,-1.875,0.37615966796875,0.37420654296875,-0.4940185546875,0.6888427734375,-19.25,7.25,-12.0625,8.69,-3.91,2.27
355.1,453529.0299542,28,3,3,3,3,8.76,-3.95,2.25,0.06,-0.03,-0.01,-6.1875,-1.8125,-2.5625,0.37640380859375,0.37420654296875,-0.49432373046875,0.68841552734375,-19.25,7.25,-12.0625,8.7,-3.91,2.26
355.11,453529.0299542,28,3,3,3,3,8.68,-3.87,2.23,-0.01,0.03,-0.03,-6.75,-0.625,-2.75,0.37677001953125,0.3741455078125,-0.49468994140625,0.68798828125,-19.25,7.25,-12.0625,8.7,-3.91,2.26
355.12,453529.044622066,28,3,3,3,3,8.73,-3.88,2.25,0.02,0.02,0.0,-8.625,0.25,-2.8125,0.37786865234375,0.37353515625,-0.4954833984375,0.68719482421875,-17.875,7.5625,-12.0625,8.7,-3.9,2.25
355.13,453529.044622066,28,3,3,3,3,8.65,-4.08,2.17,-0.05,-0.17,-0.06,-13.0,1.0625,-3.0625,0.37847900390625,0.3731689453125,-0.49609375,0.68658447265625,-17.875,7.5625,-12.0625,8.7,-3.91,2.24
355.14,453529.075225142,28,3,3,3,3,8.63,-3.99,1.91,-0.07,-0.08,-0.33,-10.125,0.625,-2.6875,0.37896728515625,0.37286376953125,-0.49664306640625,0.68603515625,-17.875,7.5625,-12.0625,8.7,-3.91,2.24
355.15,453529.075225142,28,3,3,3,3,8.6,-4.05,1.98,-0.11,-0.14,-0.24,-9.125,-0.0625,-2.5625,0.37939453125,0.3726806640625,-0.4971923828125,0.685546875,-17.875,7.5625,-12.0625,8.71,-3.91,2.23
355.16,453529.106021291,28,3,3,3,3,8.54,-4.04,2.06,-0.16,-0.13,-0.16,-10.625,1.625,-2.0,0.3798828125,0.372314453125,-0.497802734375,0.68505859375,-17.875,7.5625,-12.0625,8.71,-3.91,2.22
355.17,453529.106021291,28,3,3,3,3,8.72,-4.03,2.08,0.01,-0.11,-0.13,-8.4375,2.625,0.0,0.38031005859375,0.37176513671875,-0.498291015625,0.6846923828125,-17.5,6.875,-12.5,8.71,-3.91,2.22
355.18,453529.113159261,28,3,3,3,3,8.7,-4.27,1.92,0.0,-0.34,-0.29,-5.3125,2.0,2.5625,0.38031005859375,0.371337890625,-0.498779296875,0.6845703125,-17.5,6.875,-12.5,8.7,-3.92,2.22
355.19,453529.113159261,28,3,3,3,3,8.76,-4.33,2.02,0.06,-0.4,-0.19,-3.75,2.875,4.8125,0.380126953125,0.37078857421875,-0.499267578125,0.68463134765625,-17.5,6.875,-12.5,8.7,-3.93,2.22
355.2,453529.135220982,28,3,3,3,3,8.78,-4.41,2.13,0.09,-0.46,-0.09,-1.125,3.375,7.9375,0.3798828125,0.3702392578125,-0.49945068359375,0.6849365234375,-17.5,6.875,-12.5,8.69,-3.95,2.22
355.21,453529.135220982,28,3,3,3,3,8.79,-4.56,2.16,0.11,-0.59,-0.06,0.5,4.4375,10.875,0.37939453125,0.3695068359375,-0.49969482421875,0.68548583984375,-17.5,6.875,-12.5,8.68,-3.96,2.23
355.22,453529.149904421,28,3,3,3,3,8.83,-4.61,2.29,0.16,-0.62,0.05,1.125,5.4375,14.25,0.3782958984375,0.368896484375,-0.4996337890625,0.6864013671875,-18.875,6.875,-12.0625,8.67,-3.98,2.24
355.23,453529.149904421,28,3,3,3,3,8.7,-4.52,2.36,0.04,-0.5,0.1,2.1875,7.6875,17.375,0.37750244140625,0.36773681640625,-0.49981689453125,0.68731689453125,-18.875,6.875,-12.0625,8.65,-4.01,2.25
355.24,453529.164905933,28,3,3,3,3,8.74,-4.22,2.39,0.1,-0.17,0.12,3.9375,9.9375,19.125,0.37664794921875,0.366455078125,-0.4998779296875,0.6884765625,-18.875,6.875,-12.0625,8.64,-4.04,2.27
355.25,453529.164905933,28,3,3,3,3,8.76,-3.98,2.25,0.14,0.08,-0.03,5.75,10.5,20.6875,0.37567138671875,0.36505126953125,-0.4998779296875,0.689697265625,-18.875,6.875,-12.0625,8.62,-4.07,2.29
355.26,453529.195628436,28,3,3,3,3,8.74,-3.72,2.11,0.14,0.37,-0.19,6.5625,10.0625,20.875,0.37469482421875,0.36376953125,-0.49981689453125,0.6910400390625,-18.875,6.875,-12.0625,8.6,-4.1,2.31
355.27,453529.195628436,28,3,3,3,3,8.64,-3.65,2.11,0.05,0.47,-0.21,6.75,7.875,19.0,0.37359619140625,0.36273193359375,-0.49969482421875,0.69219970703125,-17.875,6.875,-12.5,8.58,-4.12,2.32
355.28,453529.212108177,28,3,3,3,3,8.62,-3.62,2.2,0.05,0.52,-0.13,3.375,7.0,17.625,0.37274169921875,0.36163330078125,-0.49981689453125,0.69317626953125,-17.875,6.875,-12.5,8.57,-4.15,2.34
355.29,453529.212108177,28,3,3,3,3,8.56,-3.8,2.33,0.0,0.36,-0.01,1.4375,4.875,16.25,0.37188720703125,0.36065673828125,-0.5001220703125,0.69390869140625,-17.875,6.875,-12.5,8.55,-4.17,2.34
355.3,453529.224957032,28,3,3,3,3,8.56,-3.88,2.35,0.02,0.31,0.0,0.0,2.125,16.0,0.37103271484375,0.35986328125,-0.50054931640625,0.6944580078125,-17.875,6.875,-12.5,8.54,-4.19,2.35
355.31,453529.224957032,28,3,3,3,3,8.47,-4.0,2.5,-0.05,0.21,0.14,-0.4375,4.625,16.8125,0.37017822265625,0.35882568359375,-0.50091552734375,0.6951904296875,-17.875,6.875,-12.5,8.52,-4.22,2.35
355.32,453529.23876693,28,3,3,3,3,8.24,-2.98,2.86,-0.27,1.27,0.5,-2.1875,6.4375,17.25,0.36944580078125,0.35760498046875,-0.50140380859375,0.69586181640625,-16.75,6.875,-11.6875,8.51,-4.25,2.36
355.33,453529.23876693,28,3,3,3,3,8.24,-2.98,2.86,-0.27,1.27,0.5,-2.1875,6.4375,17.25,0.36944580078125,0.35760498046875,-0.50140380859375,0.69586181640625,-16.75,6.875,-11.6875,8.51,-4.25,2.36
355.33,453529.270213912,28,3,3,3,3,8.88,-5.23,2.06,0.38,-0.95,-0.3,-9.625,6.6875,16.375,0.36907958984375,0.356201171875,-0.50225830078125,0.6961669921875,-16.75,6.875,-11.6875,8.49,-4.27,2.37
355.34,453529.270213912,28,3,3,3,3,8.35,-3.81,2.44,-0.13,0.48,0.06,-4.3125,4.375,16.3125,0.368408203125,0.35504150390625,-0.50286865234375,0.6966552734375,-16.75,6.875,-11.6875,8.48,-4.3,2.37
355.35,453529.284864122,28,3,3,3,3,8.39,-4.42,2.68,-0.07,-0.09,0.29,-1.375,7.5,16.125,0.3677978515625,0.35382080078125,-0.50323486328125,0.69732666015625,-16.75,6.875,-11.6875,8.46,-4.33,2.38
355.36,453529.284864122,28,3,3,3,3,8.57,-4.13,2.52,0.12,0.21,0.12,0.1875,9.875,15.125,0.3673095703125,0.35260009765625,-0.50341796875,0.6981201171875,-16.75,6.875,-11.6875,8.45,-4.35,2.39
355.37,453529.299425634,28,3,3,3,3,8.65,-4.1,2.38,0.21,0.26,-0.02,0.4375,10.0625,13.1875,0.36627197265625,0.35186767578125,-0.503173828125,0.69921875,-18.1875,7.25,-12.0625,8.43,-4.37,2.41
355.38,453529.299425634,28,3,3,3,3,8.63,-3.98,2.4,0.2,0.4,-0.02,-2.1875,10.125,10.75,0.36614990234375,0.35064697265625,-0.5032958984375,0.69976806640625,-18.1875,7.25,-12.0625,8.42,-4.38,2.42
355.39,453529.329883293,28,3,3,3,3,8.48,-3.95,2.5,0.06,0.44,0.06,-4.4375,9.3125,9.0,0.36627197265625,0.3497314453125,-0.50341796875,0.7000732421875,-18.1875,7.25,-12.0625,8.41,-4.39,2.43
355.4,453529.329883293,28,3,3,3,3,8.47,-4.03,2.52,0.06,0.37,0.07,-5.25,9.5,8.3125,0.36651611328125,0.3487548828125,-0.5035400390625,0.70037841796875,-18.1875,7.25,-12.0625,8.41,-4.41,2.44
355.41,453529.360227879,28,3,3,3,3,8.26,-4.2,2.46,-0.13,0.21,0.0,-5.5625,8.6875,7.8125,0.36663818359375,0.3477783203125,-0.5037841796875,0.70062255859375,-18.1875,7.25,-12.0625,8.4,-4.42,2.45
355.42,453529.360227879,28,3,3,3,3,8.15,-4.32,2.41,-0.23,0.11,-0.05,-5.8125,9.3125,7.5,0.3658447265625,0.34735107421875,-0.50360107421875,0.70135498046875,-18.1875,7.25,-12.0625,8.39,-4.43,2.46
355.43,453529.365698401,28,3,3,3,3,8.02,-4.43,2.37,-0.35,0.01,-0.09,-6.75,12.625,7.0625,0.36614990234375,0.3460693359375,-0.50384521484375,0.70166015625,-18.1875,7.25,-12.0625,8.38,-4.44,2.47
355.44,453529.365698401,28,3,3,3,3,7.9,-4.58,2.45,-0.46,-0.12,-0.03,-7.3125,14.5625,5.3125,0.36669921875,0.34466552734375,-0.50396728515625,0.70196533203125,-18.1875,7.25,-12.0625,8.37,-4.45,2.49
355.45,453529.389066215,28,3,3,3,3,7.98,-4.64,2.57,-0.37,-0.17,0.06,-6.625,16.3125,3.0,0.367431640625,0.34332275390625,-0.50390625,0.7022705078125,-18.1875,7.25,-12.0625,8.36,-4.46,2.51
355.46,453529.389066215,28,3,3,3,3,8.06,-4.56,2.61,-0.28,-0.09,0.08,-5.5625,18.0625,1.9375,0.3682861328125,0.34197998046875,-0.5037841796875,0.70263671875,-18.1875,7.25,-12.0625,8.35,-4.47,2.53
355.47,453529.404985332,28,3,3,3,3,8.2,-4.57,2.6,-0.13,-0.09,0.04,-6.1875,21.125,2.625,0.3692626953125,0.34033203125,-0.50360107421875,0.7030029296875,-17.5,8.375,-12.875,8.33,-4.47,2.56
355.48,453529.404985332,28,3,3,3,3,8.49,-4.56,2.54,0.17,-0.07,-0.04,-6.625,23.1875,4.625,0.3702392578125,0.33843994140625,-0.50335693359375,0.70355224609375,-17.5,8.375,-12.875,8.32,-4.48,2.59
355.49,453529.419473145,28,3,3,3,3,8.51,-4.6,2.55,0.21,-0.1,-0.06,-6.75,24.125,7.4375,0.37103271484375,0.33642578125,-0.50323486328125,0.7042236328125,-17.5,8.375,-12.875,8.3,-4.5,2.61
355.5,453529.419473145,28,3,3,3,3,8.57,-4.66,2.56,0.28,-0.14,-0.08,-5.4375,22.5625,10.5,0.37152099609375,0.33441162109375,-0.50311279296875,0.7049560546875,-17.5,8.375,-12.875,8.29,-4.52,2.64
355.51,453529.450833826,28,3,3,3,3,8.48,-4.68,2.5,0.21,-0.14,-0.16,-4.875,20.125,13.0625,0.37176513671875,0.33245849609375,-0.503173828125,0.70574951171875,-17.5,8.375,-12.875,8.27,-4.54,2.67
355.52,453529.450833826,28,3,3,3,3,8.43,-4.86,2.61,0.18,-0.29,-0.08,-4.375,17.625,16.125,0.37164306640625,0.33050537109375,-0.50335693359375,0.70660400390625,-16.75,8.0,-12.875,8.24,-4.56,2.69
355.53,453529.496779768,28,3,3,3,3,8.2,-4.98,2.61,-0.02,-0.38,-0.1,-4.4375,17.5625,20.5625,0.37127685546875,0.328369140625,-0.50360107421875,0.70758056640625,-16.75,8.0,-12.875,8.22,-4.59,2.71
355.54,453529.496779768,28,3,3,3,3,8.03,-5.1,2.49,-0.16,-0.46,-0.24,-2.6875,19.125,24.1875,0.3707275390625,0.3260498046875,-0.50384521484375,0.70880126953125,-16.75,8.0,-12.875,8.19,-4.63,2.74
355.55,453529.50477206,28,3,3,3,3,7.81,-5.21,2.69,-0.34,-0.54,-0.07,-1.375,20.5625,26.5625,0.3699951171875,0.32354736328125,-0.5040283203125,0.710205078125,-16.75,8.0,-12.875,8.16,-4.67,2.77
355.56,453529.50477206,28,3,3,3,3,7.7,-5.25,2.83,-0.42,-0.54,0.03,1.625,19.6875,28.6875,0.3690185546875,0.32110595703125,-0.504150390625,0.71173095703125,-16.75,8.0,-12.875,8.13,-4.71,2.79
355.57,453529.510649613,28,3,3,3,3,7.87,-5.25,2.9,-0.22,-0.5,0.07,5.6875,16.5625,28.75,0.36785888671875,0.3189697265625,-0.5040283203125,0.71337890625,-16.375,8.375,-12.875,8.09,-4.75,2.82
355.58,453529.510649613,28,3,3,3,3,7.94,-5.04,2.7,-0.12,-0.26,-0.15,8.0,15.625,27.8125,0.3665771484375,0.3170166015625,-0.50384521484375,0.71502685546875,-16.375,8.375,-12.875,8.06,-4.78,2.85
355.59,453529.524620343,28,3,3,3,3,7.87,-4.76,2.67,-0.16,0.05,-0.2,8.9375,14.625,26.5,0.36529541015625,0.31524658203125,-0.5035400390625,0.7166748046875,-16.375,8.375,-12.875,8.03,-4.81,2.88
355.6,453529.524620343,28,3,3,3,3,7.83,-4.64,2.66,-0.18,0.2,-0.23,8.25,9.4375,23.4375,0.364013671875,0.3138427734375,-0.50335693359375,0.71807861328125,-16.375,8.375,-12.875,8.01,-4.84,2.9
355.61,453529.539958626,28,3,3,3,3,7.76,-4.69,2.76,-0.22,0.17,-0.15,7.3125,9.5625,21.0625,0.3629150390625,0.31256103515625,-0.503173828125,0.71929931640625,-16.375,8.375,-12.875,7.99,-4.87,2.92
355.62,453529.539958626,28,3,3,3,3,7.59,-4.73,2.76,-0.37,0.16,-0.17,6.5,7.3125,19.75,0.36181640625,0.31146240234375,-0.5030517578125,0.72039794921875,-16.75,9.0625,-13.5625,7.97,-4.89,2.94
355.63,453529.570571286,28,3,3,3,3,7.21,-4.84,2.82,-0.74,0.07,-0.12,4.1875,3.875,18.75,0.3607177734375,0.31048583984375,-0.503173828125,0.7213134765625,-16.75,9.0625,-13.5625,7.95,-4.92,2.94
355.64,453529.570571286,28,3,3,3,3,6.96,-5.08,2.93,-0.96,-0.13,-0.02,1.0625,2.625,17.9375,0.35968017578125,0.3095703125,-0.5035400390625,0.72198486328125,-16.75,9.0625,-13.5625,7.93,-4.94,2.95
355.65,453529.584409933,28,3,3,3,3,7.11,-5.09,2.92,-0.8,-0.12,-0.03,0.125,2.75,15.0,0.35882568359375,0.3087158203125,-0.50384521484375,0.7225341796875,-16.75,9.0625,-13.5625,7.92,-4.96,2.95
355.66,453529.584409933,28,3,3,3,3,7.22,-4.97,2.97,-0.68,0.01,0.0,1.75,3.0625,11.6875,0.358154296875,0.30810546875,-0.50396728515625,0.72308349609375,-16.75,9.0625,-13.5625,7.9,-4.98,2.96
355.67,453529.615769936,28,3,3,3,3,7.52,-4.79,2.82,-0.37,0.19,-0.14,3.0625,2.3125,8.4375,0.357177734375,0.3079833984375,-0.50372314453125,0.7237548828125,-15.6875,8.375,-12.5,7.9,-4.99,2.96
355.68,453529.615769936,28,3,3,3,3,7.48,-4.68,2.8,-0.41,0.31,-0.16,2.75,1.0,6.0,0.35675048828125,0.3077392578125,-0.503662109375,0.72412109375,-15.6875,8.375,-12.5,7.89,-4.99,2.97
355.69,453529.62373452,28,3,3,3,3,7.5,-4.65,2.88,-0.38,0.35,-0.09,1.9375,1.125,3.8125,0.35650634765625,0.30755615234375,-0.50360107421875,0.724365234375,-15.6875,8.375,-12.5,7.89,-5.0,2.97
355.7,453529.62373452,28,3,3,3,3,7.54,-4.69,3.01,-0.34,0.3,0.03,-0.1875,1.0,1.6875,0.3564453125,0.30743408203125,-0.503662109375,0.72442626953125,-15.6875,8.375,-12.5,7.88,-5.0,2.97
355.71,453529.643377387,28,3,3,3,3,7.62,-4.81,2.95,-0.26,0.19,-0.02,-1.8125,0.25,0.5,0.35650634765625,0.307373046875,-0.5037841796875,0.724365234375,-15.6875,8.375,-12.5,7.88,-5.0,2.97
355.72,453529.643377387,28,3,3,3,3,7.79,-4.87,2.91,-0.09,0.13,-0.05,-1.125,0.125,-0.6875,0.3555908203125,0.30804443359375,-0.50341796875,0.7247314453125,-16.75,8.6875,-13.1875,7.88,-5.0,2.97
355.73,453529.659918794,28,3,3,3,3,7.98,-4.9,2.93,0.09,0.09,-0.04,-0.3125,-0.9375,-1.75,0.35565185546875,0.30816650390625,-0.50335693359375,0.72467041015625,-16.75,8.6875,-13.1875,7.89,-5.0,2.97
355.74,453529.659918794,28,3,3,3,3,8.11,-4.85,2.97,0.21,0.14,0.0,0.25,-5.75,-2.75,0.3555908203125,0.30865478515625,-0.50347900390625,0.72442626953125,-16.75,8.6875,-13.1875,7.89,-5.0,2.96
355.75,453529.673523275,28,3,3,3,3,8.04,-4.83,2.81,0.13,0.15,-0.14,-0.125,-10.3125,-4.4375,0.35540771484375,0.30950927734375,-0.503662109375,0.7239990234375,-16.75,8.6875,-13.1875,7.9,-4.99,2.95
355.76,453529.673523275,28,3,3,3,3,7.97,-4.84,2.79,0.05,0.14,-0.14,-0.1875,-14.4375,-6.125,0.35516357421875,0.3106689453125,-0.50396728515625,0.72344970703125,-16.75,8.6875,-13.1875,7.91,-4.98,2.93
355.77,453529.704558226,28,3,3,3,3,7.95,-4.79,2.79,0.01,0.18,-0.11,2.0,-18.4375,-6.875,0.35418701171875,0.31256103515625,-0.5040283203125,0.72308349609375,-16.375,9.0625,-12.5,7.93,-4.97,2.9
355.78,453529.704558226,28,3,3,3,3,7.97,-4.87,2.75,0.02,0.08,-0.12,3.5,-23.5,-7.875,0.35357666015625,0.31451416015625,-0.5042724609375,0.72235107421875,-16.375,9.0625,-12.5,7.95,-4.96,2.87
355.79,453529.720284478,28,3,3,3,3,8.0,-4.95,2.73,0.03,0.0,-0.1,5.4375,-29.1875,-8.375,0.3526611328125,0.31689453125,-0.504638671875,0.72149658203125,-16.375,9.0625,-12.5,7.97,-4.94,2.84
355.8,453529.720284478,28,3,3,3,3,7.89,-4.98,3.04,-0.1,-0.04,0.23,4.5,-26.5625,-7.1875,0.351806640625,0.31903076171875,-0.50494384765625,0.72076416015625,-16.375,9.0625,-12.5,7.99,-4.93,2.8
355.81,453529.765403805,28,3,3,3,3,7.85,-5.05,2.99,-0.15,-0.13,0.21,5.5,-25.3125,-5.0625,0.35089111328125,0.3209228515625,-0.50518798828125,0.72015380859375,-16.375,9.0625,-12.5,8.0,-4.92,2.78
355.82,453529.765403805,28,3,3,3,3,7.69,-4.94,2.91,-0.32,-0.02,0.16,8.0625,-24.5625,-3.3125,0.34893798828125,0.3233642578125,-0.50494384765625,0.72021484375,-16.75,8.6875,-13.1875,8.02,-4.91,2.75
355.83,453529.771897295,28,3,3,3,3,7.59,-4.53,2.83,-0.43,0.38,0.1,11.0625,-25.0,-1.625,0.34759521484375,0.32537841796875,-0.50494384765625,0.719970703125,-16.75,8.6875,-13.1875,8.03,-4.91,2.72
355.84,453529.771897295,28,3,3,3,3,7.73,-4.4,2.79,-0.31,0.5,0.09,16.0,-31.4375,0.375,0.34576416015625,0.32781982421875,-0.50494384765625,0.71978759765625,-16.75,8.6875,-13.1875,8.05,-4.9,2.69
355.85,453529.778462035,28,3,3,3,3,7.73,-4.4,2.79,-0.31,0.5,0.09,16.0,-31.4375,0.375,0.34576416015625,0.32781982421875,-0.50494384765625,0.71978759765625,-16.75,8.6875,-13.1875,8.05,-4.9,2.69
355.85,453529.778462035,28,3,3,3,3,8.32,-5.16,2.51,0.26,-0.25,-0.14,25.375,-41.8125,15.4375,0.34222412109375,0.33050537109375,-0.5050048828125,0.72015380859375,-16.75,8.6875,-13.1875,8.05,-4.91,2.66
355.86,453529.794160474,28,3,3,3,3,7.99,-4.97,2.95,-0.07,-0.06,0.32,13.875,-30.9375,4.875,0.34014892578125,0.3326416015625,-0.50518798828125,0.72003173828125,-16.75,8.6875,-13.1875,8.06,-4.91,2.63
355.87,453529.794160474,28,3,3,3,3,7.81,-4.38,2.65,-0.26,0.52,0.02,17.75,-16.9375,2.125,0.3385009765625,0.3343505859375,-0.50445556640625,0.72052001953125,-16.75,9.0625,-11.6875,8.07,-4.9,2.62
355.88,453529.810166726,28,3,3,3,3,7.79,-5.0,2.31,-0.28,-0.09,-0.29,20.875,-16.5625,4.9375,0.33685302734375,0.33575439453125,-0.5037841796875,0.7210693359375,-16.75,9.0625,-11.6875,8.07,-4.9,2.61
355.89,453529.810166726,28,3,3,3,3,8.02,-5.01,2.37,-0.06,-0.11,-0.22,20.0625,-18.125,4.25,0.335205078125,0.3372802734375,-0.503173828125,0.7215576171875,-16.75,9.0625,-11.6875,8.08,-4.9,2.6
355.9,453529.825844644,28,3,3,3,3,8.02,-4.83,2.83,-0.06,0.06,0.22,21.125,-15.75,4.0,0.3336181640625,0.3387451171875,-0.50244140625,0.72216796875,-16.75,9.0625,-11.6875,8.08,-4.89,2.6
355.91,453529.825844644,28,3,3,3,3,8.07,-4.99,2.67,0.0,-0.09,0.06,23.1875,-12.6875,4.1875,0.3321533203125,0.34002685546875,-0.50146484375,0.722900390625,-16.75,9.0625,-11.6875,8.08,-4.89,2.6
355.92,453529.855758033,28,3,3,3,3,8.07,-4.92,2.57,-0.01,-0.03,-0.04,23.0625,-7.125,3.0,0.3310546875,0.3409423828125,-0.5003662109375,0.7237548828125,-17.0625,9.5,-12.5,8.08,-4.88,2.61
355.93,453529.855758033,28,3,3,3,3,8.09,-4.84,2.61,0.0,0.03,-0.01,21.4375,-3.1875,1.9375,0.33013916015625,0.3416748046875,-0.4991455078125,0.724609375,-17.0625,9.5,-12.5,8.08,-4.88,2.63
355.94,453529.871960586,28,3,3,3,3,8.03,-4.69,2.61,-0.04,0.17,-0.03,18.3125,-0.125,1.0,0.32952880859375,0.3421630859375,-0.498046875,0.7254638671875,-17.0625,9.5,-12.5,8.08,-4.87,2.64
355.95,453529.871960586,28,3,3,3,3,7.99,-4.76,2.59,-0.09,0.1,-0.07,14.375,3.0,0.6875,0.3292236328125,0.34234619140625,-0.4970703125,0.7261962890625,-17.0625,9.5,-12.5,8.08,-4.86,2.66
355.96,453529.904129392,28,3,3,3,3,7.9,-4.98,2.64,-0.18,-0.12,-0.03,10.8125,6.5625,0.625,0.3291015625,0.34222412109375,-0.4962158203125,0.72686767578125,-17.0625,9.5,-12.5,8.08,-4.86,2.68
355.97,453529.904129392,28,3,3,3,3,7.65,-5.24,2.76,-0.42,-0.37,0.06,9.3125,9.1875,0.5625,0.32916259765625,0.34173583984375,-0.49542236328125,0.72760009765625,-16.75,8.6875,-13.5625,8.07,-4.86,2.7
355.98,453529.913920018,28,3,3,3,3,7.76,-4.83,2.69,-0.3,0.02,-0.03,5.4375,11.3125,-0.0625,0.3294677734375,0.3411865234375,-0.4947509765625,0.72821044921875,-16.75,8.6875,-13.5625,8.07,-4.86,2.72
355.99,453529.913920018,28,3,3,3,3,7.7,-4.77,2.84,-0.35,0.08,0.1,2.625,13.375,-0.625,0.33001708984375,0.3404541015625,-0.49420166015625,0.72869873046875,-16.75,8.6875,-13.5625,8.06,-4.85,2.74
356.0,453529.92933554,28,3,3,3,3,7.79,-4.8,2.75,-0.26,0.05,0.0,0.375,17.1875,-0.5625,0.330810546875,0.33935546875,-0.49365234375,0.72918701171875,-16.75,8.6875,-13.5625,8.05,-4.85,2.76
356.01,453529.92933554,28,3,3,3,3,7.87,-4.79,2.78,-0.17,0.06,0.0,-2.0625,16.25,-1.25,0.3316650390625,0.33831787109375,-0.4932861328125,0.72955322265625,-16.75,8.6875,-13.5625,8.04,-4.85,2.78
356.02,453529.944423146,28,3,3,3,3,7.92,-4.79,2.75,-0.11,0.06,-0.04,-4.125,15.0625,-1.8125,0.3336181640625,0.33660888671875,-0.49359130859375,0.729248046875,-16.375,9.5,-13.5625,8.04,-4.85,2.8
356.03,453529.944423146,28,3,3,3,3,7.94,-4.84,2.78,-0.09,0.0,-0.04,-7.125,16.0625,-2.375,0.33465576171875,0.33544921875,-0.49346923828125,0.7293701171875,-16.375,9.5,-13.5625,8.03,-4.85,2.82
356.04,453529.974076847,28,3,3,3,3,7.97,-4.91,2.83,-0.05,-0.05,0.0,-8.0,12.4375,-2.625,0.3355712890625,0.33453369140625,-0.4935302734375,0.72930908203125,-16.375,9.5,-13.5625,8.03,-4.85,2.83
356.05,453529.974076847,28,3,3,3,3,7.85,-5.03,2.91,-0.17,-0.17,0.07,-5.5,5.4375,-2.0,0.33612060546875,0.3341064453125,-0.49371337890625,0.72918701171875,-16.375,9.5,-13.5625,8.03,-4.85,2.83
356.06,453530.006017475,28,3,3,3,3,7.8,-5.06,2.92,-0.23,-0.2,0.08,-3.3125,2.0625,-1.125,0.33636474609375,0.3338623046875,-0.49383544921875,0.72906494140625,-16.375,9.5,-13.5625,8.03,-4.85,2.83
356.07,453530.006017475,28,3,3,3,3,7.77,-5.04,2.88,-0.25,-0.18,0.04,-2.375,1.6875,-0.875,0.33734130859375,0.33306884765625,-0.49432373046875,0.7286376953125,-16.75,9.75,-12.875,8.03,-4.86,2.83
356.08,453530.010962215,28,3,3,3,3,7.79,-4.94,2.81,-0.23,-0.08,-0.02,-1.0,0.0,-0.25,0.33734130859375,0.33294677734375,-0.494384765625,0.7286376953125,-16.75,9.75,-12.875,8.02,-4.86,2.83
356.09,453530.010962215,28,3,3,3,3,7.9,-4.81,2.79,-0.12,0.04,-0.04,0.25,-1.0,0.0,0.3372802734375,0.3330078125,-0.49444580078125,0.72857666015625,-16.75,9.75,-12.875,8.02,-4.86,2.83
356.1,453530.035305446,28,3,3,3,3,7.96,-4.78,2.78,-0.06,0.07,-0.05,1.0625,-1.3125,-0.25,0.337158203125,0.3331298828125,-0.49444580078125,0.7286376953125,-16.75,9.75,-12.875,8.03,-4.86,2.83
356.11,453530.035305446,28,3,3,3,3,7.96,-4.69,2.75,-0.06,0.16,-0.08,0.375,-1.6875,-0.8125,0.337158203125,0.333251953125,-0.49444580078125,0.728515625,-16.75,9.75,-12.875,8.03,-4.86,2.83
356.12,453530.050753938,28,3,3,3,3,7.97,-4.74,2.82,-0.05,0.11,0.0,0.0,-2.125,-0.9375,0.337158203125,0.33343505859375,-0.4945068359375,0.72845458984375,-16.75,9.0625,-12.0625,8.03,-4.86,2.83
356.13,453530.050753938,28,3,3,3,3,7.91,-4.78,2.82,-0.11,0.07,0.0,-0.625,-2.3125,-0.8125,0.33709716796875,0.3336181640625,-0.49456787109375,0.72833251953125,-16.75,9.0625,-12.0625,8.03,-4.85,2.82
356.14,453530.065020033,28,3,3,3,3,7.8,-4.81,2.82,-0.23,0.04,0.0,-1.25,-2.625,-0.625,0.33709716796875,0.333740234375,-0.49468994140625,0.72821044921875,-16.75,9.0625,-12.0625,8.03,-4.85,2.82
356.15,453530.065020033,28,3,3,3,3,7.73,-4.86,2.85,-0.3,0.0,0.03,-1.0,-3.9375,-0.0625,0.3369140625,0.33392333984375,-0.494873046875,0.72802734375,-16.75,9.0625,-12.0625,8.03,-4.85,2.81
356.16,453530.094818838,28,3,3,3,3,7.79,-4.98,2.85,-0.24,-0.12,0.04,-0.75,-4.0,0.625,0.33673095703125,0.3341064453125,-0.49505615234375,0.7279052734375,-16.75,9.0625,-12.0625,8.03,-4.86,2.8
356.17,453530.094818838,28,3,3,3,3,7.85,-5.04,2.82,-0.18,-0.17,0.02,-0.0625,-3.1875,1.5625,0.33642578125,0.334228515625,-0.4952392578125,0.7279052734375,-17.0625,9.0625,-12.0625,8.03,-4.86,2.8
356.18,453530.109504881,28,3,3,3,3,7.89,-4.96,2.81,-0.14,-0.09,0.01,0.375,-1.5,1.75,0.33624267578125,0.33416748046875,-0.495361328125,0.72796630859375,-17.0625,9.0625,-12.0625,8.03,-4.86,2.8
356.19,453530.109504881,28,3,3,3,3,7.9,-4.86,2.85,-0.13,0.0,0.05,0.9375,-1.5,1.625,0.33599853515625,0.334228515625,-0.495361328125,0.72802734375,-17.0625,9.0625,-12.0625,8.03,-4.87,2.8
356.2,453530.154470146,28,3,3,3,3,7.98,-4.73,2.78,-0.05,0.14,-0.01,0.6875,-1.375,1.6875,0.3358154296875,0.334228515625,-0.49542236328125,0.72808837890625,-17.0625,9.0625,-12.0625,8.03,-4.87,2.8
356.21,453530.154470146,28,3,3,3,3,7.99,-4.78,2.75,-0.04,0.09,-0.04,0.3125,-0.75,2.0,0.33563232421875,0.33416748046875,-0.4954833984375,0.72808837890625,-17.0625,9.0625,-12.0625,8.03,-4.87,2.8
356.22,453530.161717022,28,3,3,3,3,7.98,-4.79,2.77,-0.05,0.07,-0.02,0.3125,-1.0,2.125,0.3359375,0.3338623046875,-0.49578857421875,0.7279052734375,-17.0625,9.5,-13.5625,8.03,-4.87,2.79
356.23,453530.161717022,28,3,3,3,3,7.99,-4.8,2.81,-0.04,0.07,0.01,0.4375,-1.0625,1.75,0.33575439453125,0.3338623046875,-0.49591064453125,0.72796630859375,-17.0625,9.5,-13.5625,8.03,-4.88,2.79
356.24,453530.171587439,28,3,3,3,3,7.99,-4.84,2.88,-0.03,0.03,0.08,0.1875,-0.5625,1.625,0.33563232421875,0.33380126953125,-0.4959716796875,0.72796630859375,-17.0625,9.5,-13.5625,8.03,-4.88,2.79
356.25,453530.171587439,28,3,3,3,3,8.01,-4.88,2.9,-0.01,0.0,0.1,0.5625,-0.1875,1.4375,0.33551025390625,0.333740234375,-0.49591064453125,0.72808837890625,-17.0625,9.5,-13.5625,8.02,-4.88,2.79
356.26,453530.199561609,28,3,3,3,3,8.02,-4.92,2.87,0.0,-0.03,0.07,0.9375,0.0,0.9375,0.33544921875,0.333740234375,-0.49591064453125,0.7281494140625,-17.0625,9.5,-13.5625,8.02,-4.88,2.79
356.27,453530.199561609,28,3,3,3,3,7.99,-4.82,2.88,-0.03,0.06,0.08,1.0,0.0,0.4375,0.33544921875,0.333740234375,-0.495849609375,0.7281494140625,-16.75,9.0625,-12.875,8.02,-4.88,2.79
356.28,453530.215123433,28,3,3,3,3,8.0,-4.82,2.88,-0.02,0.06,0.08,1.4375,-0.125,0.0625,0.33544921875,0.333740234375,-0.4957275390625,0.72821044921875,-16.75,9.0625,-12.875,8.02,-4.88,2.8
356.29,453530.215123433,28,3,3,3,3,7.97,-4.82,2.88,-0.05,0.06,0.07,1.75,-0.25,0.0,0.33538818359375,0.33380126953125,-0.49566650390625,0.72833251953125,-16.75,9.0625,-12.875,8.02,-4.88,2.8
356.3,453530.245837447,28,3,3,3,3,7.92,-4.87,2.87,-0.09,0.01,0.06,1.875,-0.25,-0.1875,0.3353271484375,0.3338623046875,-0.4954833984375,0.7283935546875,-16.75,9.0625,-12.875,8.02,-4.88,2.8
356.31,453530.245837447,28,3,3,3,3,7.82,-4.88,2.84,-0.2,0.0,0.03,1.4375,0.0,-0.0625,0.33526611328125,0.3338623046875,-0.49542236328125,0.72845458984375,-16.75,9.0625,-12.875,8.02,-4.88,2.8
356.32,453530.252857551,28,3,3,3,3,7.76,-4.87,2.88,-0.26,0.01,0.07,0.5,0.4375,0.0,0.3359375,0.33343505859375,-0.49566650390625,0.72821044921875,-16.0625,9.0625,-13.5625,8.02,-4.88,2.8
356.33,453530.252857551,28,3,3,3,3,7.78,-4.86,2.85,-0.24,0.02,0.04,0.0,1.0,0.3125,0.3359375,0.33331298828125,-0.49566650390625,0.728271484375,-16.0625,9.0625,-13.5625,8.02,-4.88,2.8
356.34,453530.276173179,28,3,3,3,3,7.8,-4.84,2.86,-0.22,0.04,0.05,0.5625,0.3125,0.5,0.3359375,0.33331298828125,-0.49560546875,0.72833251953125,-16.0625,9.0625,-13.5625,8.02,-4.88,2.81
356.35,453530.276173179,28,3,3,3,3,7.87,-4.81,2.85,-0.15,0.06,0.04,0.6875,0.0,0.5,0.3359375,0.33331298828125,-0.49554443359375,0.72833251953125,-16.0625,9.0625,-13.5625,8.02,-4.88,2.81
356.36,453530.289846305,28,3,3,3,3,7.9,-4.8,2.84,-0.12,0.07,0.03,0.8125,-0.25,0.125,0.33587646484375,0.33331298828125,-0.4954833984375,0.7283935546875,-16.0625,9.0625,-13.5625,8.02,-4.88,2.81
356.37,453530.289846305,28,3,3,3,3,7.92,-4.81,2.82,-0.09,0.06,0.0,0.4375,-0.4375,-0.375,0.3359375,0.333251953125,-0.4954833984375,0.7283935546875,-16.75,9.0625,-12.875,8.02,-4.88,2.81
356.38,453530.321855215,28,3,3,3,3,7.92,-4.79,2.86,-0.1,0.09,0.05,0.0,-0.4375,-0.9375,0.33599853515625,0.33331298828125,-0.4954833984375,0.7283935546875,-16.75,9.0625,-12.875,8.02,-4.88,2.81
356.39,453530.321855215,28,3,3,3,3,7.87,-4.8,2.84,-0.15,0.07,0.03,-0.125,-0.875,-1.3125,0.3360595703125,0.33343505859375,-0.4954833984375,0.72833251953125,-16.75,9.0625,-12.875,8.02,-4.87,2.81
356.4,453530.336408393,28,3,3,3,3,7.81,-4.83,2.82,-0.21,0.04,0.01,-0.5,-1.0,-1.5,0.33612060546875,0.33355712890625,-0.49542236328125,0.728271484375,-16.75,9.0625,-12.875,8.02,-4.87,2.81
356.41,453530.336408393,28,3,3,3,3,7.77,-4.84,2.86,-0.25,0.02,0.05,-0.875,-0.6875,-1.5625,0.336181640625,0.3336181640625,-0.4954833984375,0.7281494140625,-16.75,9.0625,-12.875,8.03,-4.87,2.8
356.42,453530.349735217,28,3,3,3,3,7.77,-4.83,2.86,-0.26,0.04,0.05,-1.125,-0.4375,-1.5,0.33636474609375,0.33355712890625,-0.49554443359375,0.72802734375,-16.0625,8.375,-14.375,8.03,-4.87,2.8
356.43,453530.349735217,28,3,3,3,3,7.85,-4.76,2.82,-0.18,0.1,0.01,-1.0,-0.5625,-1.5,0.33648681640625,0.3336181640625,-0.49554443359375,0.72796630859375,-16.0625,8.375,-14.375,8.03,-4.87,2.8
356.44,453530.395820118,28,3,3,3,3,7.88,-4.79,2.81,-0.15,0.08,0.0,-1.1875,-0.5625,-1.5625,0.33660888671875,0.33367919921875,-0.49560546875,0.72784423828125,-16.0625,8.375,-14.375,8.03,-4.87,2.8
356.45,453530.395820118,28,3,3,3,3,7.94,-4.76,2.83,-0.09,0.1,0.03,-1.625,-0.6875,-1.75,0.33673095703125,0.333740234375,-0.49566650390625,0.72772216796875,-16.0625,8.375,-14.375,8.03,-4.87,2.8
356.46,453530.401561941,28,3,3,3,3,7.98,-4.83,2.84,-0.05,0.03,0.04,-2.125,-0.9375,-1.75,0.33685302734375,0.33380126953125,-0.49578857421875,0.7275390625,-16.0625,8.375,-14.375,8.03,-4.86,2.8
356.47,453530.401561941,28,3,3,3,3,8.0,-4.89,2.83,-0.03,-0.02,0.03,-2.4375,-0.8125,-2.125,0.3370361328125,0.3338623046875,-0.495849609375,0.72735595703125,-16.375,8.6875,-12.0625,8.04,-4.86,2.79
356.48,453530.409291265,28,3,3,3,3,8.0,-4.9,2.84,-0.03,-0.03,0.05,-2.5,-0.375,-2.3125,0.33721923828125,0.33392333984375,-0.4959716796875,0.7271728515625,-16.375,8.6875,-12.0625,8.04,-4.86,2.79
356.49,453530.409291265,28,3,3,3,3,7.99,-4.94,2.83,-0.04,-0.07,0.04,-2.6875,-0.3125,-2.4375,0.33746337890625,0.33392333984375,-0.49609375,0.72698974609375,-16.375,8.6875,-12.0625,8.04,-4.86,2.79
356.5,453530.438764705,28,3,3,3,3,8.03,-4.94,2.82,0.0,-0.08,0.03,-3.5,0.0625,-3.25,0.3377685546875,0.33392333984375,-0.4962158203125,0.72674560546875,-16.375,8.6875,-12.0625,8.04,-4.86,2.79
356.51,453530.438764705,28,3,3,3,3,7.96,-4.89,2.91,-0.08,-0.03,0.12,-6.3125,1.8125,-4.25,0.33831787109375,0.33380126953125,-0.49639892578125,0.7264404296875,-16.375,8.6875,-12.0625,8.04,-4.85,2.78
356.52,453530.454018978,28,3,3,3,3,7.96,-4.88,2.87,-0.08,-0.03,0.08,-7.25,2.875,-4.3125,0.33966064453125,0.33306884765625,-0.49700927734375,0.72576904296875,-16.75,9.75,-12.875,8.05,-4.85,2.78
356.53,453530.454018978,28,3,3,3,3,7.91,-4.91,2.83,-0.14,-0.06,0.04,-7.3125,2.875,-4.6875,0.34027099609375,0.33282470703125,-0.49725341796875,0.72540283203125,-16.75,9.75,-12.875,8.05,-4.85,2.78
356.54,453530.469797573,28,3,3,3,3,7.92,-4.78,2.82,-0.13,0.06,0.03,-7.25,2.5,-4.8125,0.3409423828125,0.3326416015625,-0.49749755859375,0.72503662109375,-16.75,9.75,-12.875,8.05,-4.84,2.78
356.55,453530.469797573,28,3,3,3,3,7.89,-4.77,2.81,-0.16,0.07,0.03,-6.5625,1.9375,-4.5,0.34149169921875,0.33251953125,-0.4976806640625,0.72467041015625,-16.75,9.75,-12.875,8.05,-4.84,2.78
356.56,453530.499626482,28,3,3,3,3,7.84,-4.79,2.92,-0.21,0.04,0.14,-6.5625,1.5625,-4.3125,0.34197998046875,0.33233642578125,-0.4979248046875,0.72430419921875,-16.75,9.75,-12.875,8.06,-4.84,2.77
356.57,453530.499626482,28,3,3,3,3,7.81,-4.77,2.9,-0.24,0.07,0.12,-6.375,1.25,-3.5,0.34259033203125,0.3321533203125,-0.49822998046875,0.72393798828125,-16.75,9.0625,-13.1875,8.06,-4.84,2.77
356.58,453530.514676796,28,3,3,3,3,7.92,-4.79,2.63,-0.14,0.04,-0.13,-5.625,0.0,-2.75,0.3428955078125,0.33209228515625,-0.49847412109375,0.7236328125,-16.75,9.0625,-13.1875,8.06,-4.84,2.77
356.59,453530.514676796,28,3,3,3,3,7.91,-4.77,2.71,-0.15,0.06,-0.05,-6.0625,-1.5625,-2.625,0.34320068359375,0.33209228515625,-0.49884033203125,0.7232666015625,-16.75,9.0625,-13.1875,8.06,-4.84,2.76
356.6,453530.52962336,28,3,3,3,3,7.91,-4.79,2.76,-0.16,0.04,0.01,-7.6875,-1.375,-2.4375,0.343505859375,0.33203125,-0.499267578125,0.7227783203125,-16.75,9.0625,-13.1875,8.07,-4.84,2.75
356.61,453530.52962336,28,3,3,3,3,7.9,-4.74,2.77,-0.16,0.09,0.02,-8.125,-2.5,-2.1875,0.34375,0.33203125,-0.49981689453125,0.72235107421875,-16.75,9.0625,-13.1875,8.07,-4.84,2.74
356.62,453530.56001003,28,3,3,3,3,7.91,-4.81,2.76,-0.16,0.02,0.03,-8.0,-3.75,-1.625,0.34405517578125,0.33203125,-0.50042724609375,0.72174072265625,-16.75,9.0625,-13.5625,8.07,-4.84,2.73
356.63,453530.56001003,28,3,3,3,3,7.94,-4.87,2.8,-0.13,-0.03,0.07,-6.9375,-3.25,-0.875,0.34417724609375,0.33203125,-0.5009765625,0.72137451171875,-16.75,9.0625,-13.5625,8.07,-4.84,2.72
356.64,453530.576442167,28,3,3,3,3,7.99,-4.91,2.77,-0.08,-0.07,0.06,-5.3125,-3.0625,-0.625,0.34423828125,0.33209228515625,-0.5013427734375,0.72100830078125,-16.75,9.0625,-13.5625,8.08,-4.84,2.71
356.65,453530.576442167,28,3,3,3,3,8.07,-4.96,2.73,0.0,-0.11,0.03,-3.9375,-3.0625,-0.4375,0.34423828125,0.33209228515625,-0.501708984375,0.72076416015625,-16.75,9.0625,-13.5625,8.08,-4.85,2.7
356.66,453530.5898767,28,3,3,3,3,8.04,-4.93,2.71,-0.03,-0.08,0.01,-3.4375,-3.0625,-0.0625,0.34417724609375,0.33221435546875,-0.50201416015625,0.72052001953125,-16.75,9.0625,-13.5625,8.08,-4.85,2.69
356.67,453530.5898767,28,3,3,3,3,8.04,-4.89,2.69,-0.03,-0.04,0.0,-3.0625,-2.125,0.125,0.3446044921875,0.3319091796875,-0.50250244140625,0.72015380859375,-16.75,9.5,-12.5,8.08,-4.85,2.69
356.68,453530.620162901,28,3,3,3,3,8.07,-4.88,2.7,-0.01,-0.03,0.01,-3.25,-1.4375,0.0625,0.3446044921875,0.3319091796875,-0.50274658203125,0.719970703125,-16.75,9.5,-12.5,8.08,-4.85,2.68
356.69,453530.620162901,28,3,3,3,3,8.05,-4.93,2.68,-0.03,-0.08,0.0,-3.875,-1.0,0.0625,0.3447265625,0.33184814453125,-0.50299072265625,0.7197265625,-16.75,9.5,-12.5,8.08,-4.85,2.68
356.7,453530.635696912,28,3,3,3,3,8.06,-4.92,2.71,-0.02,-0.06,0.03,-3.6875,-1.625,-0.25,0.3447265625,0.33184814453125,-0.5032958984375,0.71954345703125,-16.75,9.5,-12.5,8.08,-4.85,2.67
356.71,453530.635696912,28,3,3,3,3,8.04,-4.94,2.7,-0.04,-0.08,0.03,-3.75,-1.75,-0.8125,0.34478759765625,0.33184814453125,-0.5035400390625,0.71929931640625,-16.75,9.5,-12.5,8.08,-4.85,2.67
356.72,453530.649422278,28,3,3,3,3,7.91,-4.93,2.7,-0.17,-0.07,0.03,-3.75,-1.6875,-1.3125,0.3443603515625,0.332275390625,-0.5035400390625,0.7193603515625,-17.5,8.6875,-12.875,8.08,-4.86,2.66
356.73,453530.649422278,28,3,3,3,3,7.9,-4.88,2.59,-0.18,-0.02,-0.06,-2.625,-1.125,-1.3125,0.344482421875,0.33233642578125,-0.50372314453125,0.71917724609375,-17.5,8.6875,-12.875,8.09,-4.85,2.66
356.74,453530.681391136,28,3,3,3,3,7.8,-4.89,2.66,-0.29,-0.03,0.0,-2.625,-0.75,-1.1875,0.34454345703125,0.332275390625,-0.50390625,0.718994140625,-17.5,8.6875,-12.875,8.09,-4.85,2.66
356.75,453530.681391136,28,3,3,3,3,7.71,-4.85,2.74,-0.37,0.0,0.08,-2.0625,-1.0625,-1.3125,0.3446044921875,0.33233642578125,-0.5040283203125,0.7188720703125,-17.5,8.6875,-12.875,8.09,-4.85,2.65
356.76,453530.69445421,28,3,3,3,3,7.75,-4.83,2.63,-0.33,0.02,-0.01,-1.1875,-0.875,-0.75,0.34466552734375,0.33233642578125,-0.50408935546875,0.71881103515625,-17.5,8.6875,-12.875,8.09,-4.86,2.65
356.77,453530.69445421,28,3,3,3,3,7.75,-4.82,2.59,-0.33,0.03,-0.06,-2.0625,-0.375,-0.25,0.3443603515625,0.33245849609375,-0.50408935546875,0.7188720703125,-18.1875,9.5,-12.0625,8.09,-4.86,2.65
356.78,453530.710764316,28,3,3,3,3,7.79,-4.73,2.58,-0.29,0.12,-0.06,-2.75,-1.8125,-0.75,0.3443603515625,0.33251953125,-0.5042724609375,0.71868896484375,-18.1875,9.5,-12.0625,8.09,-4.86,2.65
356.79,453530.710764316,28,3,3,3,3,7.75,-4.67,2.52,-0.33,0.18,-0.11,-3.875,-3.6875,-1.5625,0.34442138671875,0.33270263671875,-0.50457763671875,0.7183837890625,-18.1875,9.5,-12.0625,8.09,-4.86,2.64
356.8,453530.741552756,28,3,3,3,3,7.82,-4.59,2.53,-0.27,0.26,-0.09,-5.25,-3.875,-2.0625,0.34454345703125,0.3328857421875,-0.50494384765625,0.71795654296875,-18.1875,9.5,-12.0625,8.09,-4.86,2.63
356.81,453530.741552756,28,3,3,3,3,7.86,-4.62,2.53,-0.23,0.23,-0.08,-6.6875,-5.5,-3.1875,0.34466552734375,0.3331298828125,-0.5054931640625,0.7174072265625,-18.1875,9.5,-12.0625,8.1,-4.86,2.61
356.82,453530.754385883,28,3,3,3,3,7.92,-4.67,2.44,-0.19,0.18,-0.15,-9.4375,-6.9375,-4.4375,0.344970703125,0.33349609375,-0.50616455078125,0.7166748046875,-16.75,9.0625,-12.5,8.11,-4.85,2.6
356.83,453530.754385883,28,3,3,3,3,7.94,-4.74,2.38,-0.17,0.11,-0.19,-11.5,-7.5625,-5.375,0.34527587890625,0.3338623046875,-0.5069580078125,0.71575927734375,-16.75,9.0625,-12.5,8.12,-4.85,2.58
356.84,453530.771269634,28,3,3,3,3,7.92,-4.7,2.45,-0.19,0.14,-0.1,-13.25,-7.8125,-5.9375,0.345703125,0.334228515625,-0.5078125,0.71478271484375,-16.75,9.0625,-12.5,8.12,-4.85,2.55
356.85,453530.771269634,28,3,3,3,3,7.79,-4.81,2.55,-0.34,0.03,0.02,-14.0,-7.5,-6.375,0.34619140625,0.33453369140625,-0.50872802734375,0.7137451171875,-16.75,9.0625,-12.5,8.13,-4.85,2.53
356.86,453530.801337137,28,3,3,3,3,7.7,-4.74,2.49,-0.44,0.1,-0.01,-13.1875,-6.375,-6.5,0.3466796875,0.33477783203125,-0.50958251953125,0.7127685546875,-16.75,9.0625,-12.5,8.14,-4.84,2.51
356.87,453530.801337137,28,3,3,3,3,7.53,-4.76,2.32,-0.61,0.08,-0.17,-11.4375,-4.3125,-6.5625,0.34716796875,0.3349609375,-0.51019287109375,0.71197509765625,-17.875,9.5,-12.875,8.15,-4.84,2.49
356.88,453530.808331148,28,3,3,3,3,7.53,-4.76,2.32,-0.61,0.08,-0.17,-11.4375,-4.3125,-6.5625,0.34716796875,0.3349609375,-0.51019287109375,0.71197509765625,-17.875,9.5,-12.875,8.15,-4.84,2.49
356.89,453530.808331148,28,3,3,3,3,7.21,-4.51,2.22,-0.94,0.32,-0.26,-10.5625,-4.1875,-7.375,0.3477783203125,0.33526611328125,-0.51080322265625,0.711181640625,-17.875,9.5,-12.875,8.16,-4.83,2.48
356.89,453530.83019313,28,3,3,3,3,7.09,-4.38,2.22,-1.07,0.44,-0.24,-11.125,-5.3125,-8.3125,0.348388671875,0.33563232421875,-0.51141357421875,0.71026611328125,-17.875,9.5,-12.875,8.16,-4.83,2.46
356.9,453530.83019313,28,3,3,3,3,6.96,-4.18,2.21,-1.21,0.63,-0.23,-12.6875,-7.5,-9.25,0.3489990234375,0.33612060546875,-0.51214599609375,0.709228515625,-17.875,9.5,-12.875,8.18,-4.82,2.44
356.91,453530.845697975,28,3,3,3,3,6.85,-4.05,2.15,-1.33,0.76,-0.26,-14.375,-9.875,-9.9375,0.34954833984375,0.33673095703125,-0.5130615234375,0.70794677734375,-17.875,9.5,-12.875,8.19,-4.81,2.42
356.92,453530.845697975,28,3,3,3,3,6.5,-3.76,1.98,-1.7,1.04,-0.4,-16.1875,-12.875,-10.5,0.34991455078125,0.337646484375,-0.5140380859375,0.7066650390625,-16.75,8.6875,-11.25,8.2,-4.8,2.38
356.93,453530.87482428,28,3,3,3,3,6.32,-3.55,1.73,-1.9,1.24,-0.61,-18.625,-15.0,-10.75,0.35040283203125,0.3385009765625,-0.51531982421875,0.70501708984375,-16.75,8.6875,-11.25,8.22,-4.79,2.35
356.94,453530.87482428,28,3,3,3,3,6.13,-3.48,1.65,-2.09,1.3,-0.66,-19.4375,-15.6875,-9.9375,0.35089111328125,0.33929443359375,-0.51666259765625,0.70343017578125,-16.75,8.6875,-11.25,8.23,-4.79,2.31
356.95,453530.88068126,28,3,3,3,3,5.36,-3.27,1.72,-2.88,1.51,-0.54,-19.4375,-16.125,-8.125,0.35125732421875,0.340087890625,-0.51812744140625,0.7017822265625,-16.75,8.6875,-11.25,8.25,-4.78,2.27
356.96,453530.88068126,28,3,3,3,3,4.78,-3.21,1.64,-3.47,1.56,-0.59,-17.5625,-16.8125,-5.9375,0.35137939453125,0.3408203125,-0.51953125,0.7003173828125,-16.75,8.6875,-11.25,8.26,-4.78,2.23
356.97,453530.906371106,28,3,3,3,3,4.25,-3.1,1.32,-4.01,1.68,-0.87,-14.0,-17.9375,-3.5625,0.3511962890625,0.3416748046875,-0.5208740234375,0.69903564453125,-17.875,9.5,-12.0625,8.27,-4.78,2.19
356.98,453530.906371106,28,3,3,3,3,3.75,-2.94,0.9,-4.52,1.84,-1.25,-9.5625,-16.6875,-1.5625,0.350830078125,0.34246826171875,-0.52191162109375,0.69805908203125,-17.875,9.5,-12.0625,8.27,-4.78,2.16
356.99,453530.919567253,28,3,3,3,3,3.44,-2.18,0.02,-4.84,2.6,-2.11,-5.875,-15.75,-0.375,0.35028076171875,0.34320068359375,-0.52276611328125,0.69732666015625,-17.875,9.5,-12.0625,8.28,-4.79,2.13
357.0,453530.919567253,28,3,3,3,3,3.68,-1.79,0.05,-4.6,2.99,-2.05,-4.5625,-14.5625,0.1875,0.3497314453125,0.343994140625,-0.5234375,0.6966552734375,-17.875,9.5,-12.0625,8.29,-4.79,2.11
357.01,453530.949283558,28,3,3,3,3,4.14,-1.52,0.41,-4.15,3.27,-1.66,-6.625,-14.125,0.375,0.34930419921875,0.3446044921875,-0.5242919921875,0.6959228515625,-17.875,9.5,-12.0625,8.29,-4.79,2.08
357.02,453530.949283558,28,3,3,3,3,4.77,-1.5,0.97,-3.52,3.29,-1.08,-10.5,-15.0,0.9375,0.34808349609375,0.345703125,-0.5250244140625,0.6954345703125,-18.5625,9.0625,-10.5,8.3,-4.8,2.05
357.03,453530.964482154,28,3,3,3,3,6.69,-2.04,2.07,-1.6,2.76,0.06,-15.5625,-18.5,0.3125,0.34771728515625,0.34637451171875,-0.52655029296875,0.69415283203125,-18.5625,9.0625,-10.5,8.3,-4.8,2.01
357.04,453530.964482154,28,3,3,3,3,7.95,-2.88,2.65,-0.35,1.92,0.69,-21.0625,-21.8125,-0.625,0.347412109375,0.34710693359375,-0.5284423828125,0.6925048828125,-18.5625,9.0625,-10.5,8.31,-4.81,1.96
357.05,453530.981064707,28,3,3,3,3,9.32,-4.04,3.16,1.0,0.77,1.26,-27.5,-23.8125,-2.625,0.3472900390625,0.34783935546875,-0.53076171875,0.6904296875,-18.5625,9.0625,-10.5,8.32,-4.81,1.9
357.06,453530.981064707,28,3,3,3,3,11.51,-5.56,3.57,3.17,-0.74,1.72,-35.0,-22.875,-3.6875,0.3475341796875,0.34832763671875,-0.533447265625,0.68798828125,-18.5625,9.0625,-10.5,8.33,-4.82,1.84
357.07,453531.010454502,28,3,3,3,3,14.46,-9.21,3.06,6.11,-4.38,1.28,-39.25,-22.125,-4.5625,0.3482666015625,0.348388671875,-0.5364990234375,0.6851806640625,-17.5,9.75,-9.6875,8.34,-4.83,1.78
357.08,453531.010454502,28,3,3,3,3,15.28,-10.95,2.92,6.93,-6.12,1.19,-31.375,-18.8125,-5.9375,0.34869384765625,0.348876953125,-0.53875732421875,0.6829833984375,-17.5,9.75,-9.6875,8.35,-4.83,1.72
357.09,453531.02637216,28,3,3,3,3,15.01,-11.89,2.96,6.64,-7.06,1.27,-15.3125,-13.75,-4.75,0.34881591796875,0.34942626953125,-0.5399169921875,0.68170166015625,-17.5,9.75,-9.6875,8.36,-4.82,1.69
357.1,453531.02637216,28,3,3,3,3,12.49,-10.72,3.0,4.12,-5.9,1.31,-2.375,-5.1875,-3.5625,0.34881591796875,0.349853515625,-0.5401611328125,0.68133544921875,-17.5,9.75,-9.6875,8.37,-4.82,1.68
357.11,453531.03990664,28,3,3,3,3,11.06,-9.73,2.92,2.69,-4.91,1.22,8.25,5.3125,-0.4375,0.34881591796875,0.34979248046875,-0.53948974609375,0.681884765625,-17.5,9.75,-9.6875,8.36,-4.82,1.69
357.12,453531.03990664,28,3,3,3,3,9.75,-8.64,2.65,1.39,-3.82,0.91,19.0,15.3125,5.5,0.34869384765625,0.34912109375,-0.5380859375,0.68341064453125,-17.5,9.5,-10.0625,8.35,-4.82,1.73
357.13,453531.070009664,28,3,3,3,3,9.14,-7.42,2.59,0.8,-2.59,0.8,25.25,21.3125,9.3125,0.34832763671875,0.34820556640625,-0.53619384765625,0.68548583984375,-17.5,9.5,-10.0625,8.34,-4.83,1.78
357.14,453531.070009664,28,3,3,3,3,10.13,-5.01,3.0,1.8,-0.17,1.16,23.5,19.4375,9.3125,0.34796142578125,0.3472900390625,-0.53448486328125,0.6875,-17.5,9.5,-10.0625,8.33,-4.83,1.83
357.15,453531.074942581,28,3,3,3,3,10.13,-5.01,3.0,1.8,-0.17,1.16,23.5,19.4375,9.3125,0.34796142578125,0.3472900390625,-0.53448486328125,0.6875,-17.5,9.5,-10.0625,8.33,-4.83,1.83
357.16,453531.074942581,28,3,3,3,3,11.48,-4.35,3.45,3.17,0.49,1.58,14.4375,16.9375,8.9375,0.3477783203125,0.3463134765625,-0.53338623046875,0.68896484375,-17.5,9.5,-10.0625,8.31,-4.84,1.87
357.16,453531.099165969,28,3,3,3,3,13.42,-5.04,4.0,5.12,-0.18,2.1,3.875,13.4375,10.8125,0.34765625,0.3450927734375,-0.53302001953125,0.68988037109375,-17.5,9.5,-10.0625,8.3,-4.85,1.89
357.17,453531.099165969,28,3,3,3,3,15.53,-6.44,4.49,7.24,-1.56,2.59,-6.8125,9.1875,12.0,0.3475341796875,0.34375,-0.5335693359375,0.690185546875,-17.0625,9.0625,-10.0625,8.29,-4.87,1.9
357.18,453531.114540398,28,3,3,3,3,19.49,-10.67,4.95,11.21,-5.76,3.05,-14.375,2.0,12.0,0.34735107421875,0.3426513671875,-0.53472900390625,0.68994140625,-17.0625,9.0625,-10.0625,8.27,-4.9,1.89
357.19,453531.114540398,28,3,3,3,3,21.27,-13.42,4.93,12.99,-8.5,3.05,-12.625,-7.625,10.1875,0.34674072265625,0.34222412109375,-0.5360107421875,0.689453125,-17.0625,9.0625,-10.0625,8.27,-4.92,1.87
357.2,453531.130256128,28,3,3,3,3,22.05,-15.31,4.62,13.77,-10.37,2.77,-5.125,-12.8125,5.6875,0.345947265625,0.34259033203125,-0.536865234375,0.68902587890625,-17.0625,9.0625,-10.0625,8.27,-4.93,1.85
357.21,453531.130256128,28,3,3,3,3,21.41,-15.64,4.14,13.13,-10.71,2.3,1.875,-11.625,-0.875,0.34539794921875,0.3433837890625,-0.53704833984375,0.688720703125,-17.0625,9.0625,-10.0625,8.27,-4.92,1.83
357.22,453531.160199413,28,3,3,3,3,17.48,-11.87,3.23,9.19,-6.96,1.4,8.75,-9.875,-9.75,0.3453369140625,0.3446044921875,-0.53656005859375,0.68853759765625,-17.0625,9.5,-10.0625,8.28,-4.91,1.83
357.23,453531.160199413,28,3,3,3,3,15.67,-10.06,2.99,7.37,-5.17,1.15,16.25,-4.625,-12.1875,0.3453369140625,0.345947265625,-0.535400390625,0.68878173828125,-17.0625,9.5,-10.0625,8.29,-4.88,1.83
357.24,453531.173784674,28,3,3,3,3,13.49,-8.43,3.12,5.19,-3.56,1.26,25.6875,4.5,-10.375,0.34539794921875,0.346923828125,-0.53338623046875,0.6898193359375,-17.0625,9.5,-10.0625,8.3,-4.86,1.86
357.25,453531.173784674,28,3,3,3,3,9.96,-5.98,2.64,1.66,-1.14,0.73,32.0625,14.8125,-8.375,0.34564208984375,0.347412109375,-0.53076171875,0.6915283203125,-17.0625,9.5,-10.0625,8.3,-4.84,1.91
357.27,453531.188493113,28,3,3,3,3,8.31,-4.97,2.08,0.0,-0.15,0.11,33.9375,18.0,-9.0625,0.345947265625,0.34771728515625,-0.52789306640625,0.693359375,-17.0625,9.5,-10.0625,8.31,-4.81,1.96
357.27,453531.188493113,28,3,3,3,3,6.91,-3.86,1.47,-1.39,0.92,-0.54,33.1875,15.625,-10.8125,0.34698486328125,0.3477783203125,-0.525390625,0.6947021484375,-17.5,10.5,-9.25,8.31,-4.79,2.02
357.28,453531.235331035,28,3,3,3,3,5.78,-2.84,0.97,-2.53,1.92,-1.09,31.8125,14.8125,-11.6875,0.347412109375,0.348388671875,-0.52264404296875,0.6962890625,-17.5,10.5,-9.25,8.31,-4.76,2.06
357.29,453531.235331035,28,3,3,3,3,3.57,-1.16,0.19,-4.74,3.57,-1.91,28.6875,13.4375,-12.5,0.347900390625,0.3489990234375,-0.52008056640625,0.6976318359375,-17.5,10.5,-9.25,8.32,-4.73,2.11
357.3,453531.242587806,28,3,3,3,3,2.55,-0.57,-0.22,-5.77,4.13,-2.37,23.5,9.5625,-12.3125,0.34832763671875,0.34967041015625,-0.51800537109375,0.6986083984375,-17.5,10.5,-9.25,8.33,-4.7,2.14
357.31,453531.242587806,28,3,3,3,3,1.52,0.0,-0.55,-6.81,4.68,-2.71,18.1875,5.625,-12.125,0.34881591796875,0.3504638671875,-0.516357421875,0.69921875,-17.5,10.5,-9.25,8.33,-4.68,2.16
357.32,453531.250096245,28,3,3,3,3,0.56,0.53,-0.79,-7.78,5.19,-2.97,14.0,2.375,-12.125,0.3492431640625,0.35125732421875,-0.51507568359375,0.69952392578125,-17.0625,9.0625,-10.5,8.34,-4.66,2.18
357.33,453531.250096245,28,3,3,3,3,-1.09,1.06,-1.34,-9.44,5.7,-3.53,10.875,-1.9375,-10.375,0.34942626953125,0.3521728515625,-0.51416015625,0.69964599609375,-17.0625,9.0625,-10.5,8.35,-4.64,2.18
357.34,453531.279786091,28,3,3,3,3,-1.75,1.22,-1.54,-10.12,5.85,-3.72,6.5625,-8.0625,-7.25,0.34930419921875,0.3531494140625,-0.5137939453125,0.699462890625,-17.0625,9.0625,-10.5,8.36,-4.62,2.18
357.35,453531.279786091,28,3,3,3,3,-2.22,1.45,-1.72,-10.59,6.07,-3.89,1.1875,-12.75,-5.625,0.34906005859375,0.354248046875,-0.513916015625,0.698974609375,-17.0625,9.0625,-10.5,8.37,-4.62,2.16
357.36,453531.294348176,28,3,3,3,3,-2.42,1.86,-1.47,-10.81,6.48,-3.61,-2.9375,-14.1875,-4.375,0.3487548828125,0.355224609375,-0.514404296875,0.6982421875,-17.0625,9.0625,-10.5,8.38,-4.61,2.14
357.37,453531.294348176,28,3,3,3,3,-1.81,2.48,-1.31,-10.21,7.09,-3.42,-8.25,-16.1875,-3.25,0.3486328125,0.35601806640625,-0.515380859375,0.69720458984375,-16.75,8.6875,-10.5,8.39,-4.61,2.11
357.38,453531.308956875,28,3,3,3,3,-1.23,2.53,-1.27,-9.63,7.14,-3.34,-12.1875,-18.4375,-1.1875,0.3482666015625,0.3568115234375,-0.5166015625,0.696044921875,-16.75,8.6875,-10.5,8.39,-4.61,2.07
357.39,453531.308956875,28,3,3,3,3,-0.49,2.23,-1.11,-8.9,6.85,-3.14,-14.875,-21.0,-0.4375,0.3477783203125,0.357666015625,-0.5181884765625,0.69476318359375,-16.75,8.6875,-10.5,8.4,-4.62,2.03
357.4,453531.325483387,28,3,3,3,3,0.28,1.87,-0.89,-8.12,6.49,-2.88,-16.5,-22.75,-0.8125,0.3472900390625,0.35858154296875,-0.51983642578125,0.6932373046875,-16.75,8.6875,-10.5,8.41,-4.62,1.98
357.41,453531.325483387,28,3,3,3,3,0.28,1.87,-0.89,-8.12,6.49,-2.88,-16.5,-22.75,-0.8125,0.3472900390625,0.35858154296875,-0.51983642578125,0.6932373046875,-16.75,8.6875,-10.5,8.41,-4.62,1.98
357.42,453531.341474222,28,3,3,3,3,1.81,0.42,-0.57,-6.6,5.05,-2.51,-18.0,-23.375,-1.8125,0.346923828125,0.3594970703125,-0.5216064453125,0.691650390625,-16.75,8.6875,-10.5,8.42,-4.62,1.93
357.43,453531.341474222,28,3,3,3,3,2.34,-0.34,-0.33,-6.08,4.28,-2.22,-18.875,-23.625,-3.1875,0.34600830078125,0.3609619140625,-0.52301025390625,0.69024658203125,-18.1875,8.375,-10.0625,8.43,-4.63,1.88
357.43,453531.370379486,28,3,3,3,3,2.58,-1.08,-0.02,-5.86,3.54,-1.86,-18.0625,-22.5625,-4.375,0.3458251953125,0.36199951171875,-0.524658203125,0.68853759765625,-18.1875,8.375,-10.0625,8.44,-4.63,1.83
357.44,453531.370379486,28,3,3,3,3,2.56,-2.3,0.26,-5.89,2.32,-1.53,-15.3125,-19.375,-5.75,0.34576416015625,0.36297607421875,-0.5260009765625,0.68707275390625,-18.1875,8.375,-10.0625,8.45,-4.62,1.79
357.45,453531.385702143,28,3,3,3,3,2.52,-2.59,0.42,-5.94,2.02,-1.33,-10.0,-15.375,-7.25,0.3458251953125,0.3638916015625,-0.52685546875,0.68585205078125,-18.1875,8.375,-10.0625,8.46,-4.61,1.76
357.46,453531.385702143,28,3,3,3,3,2.38,-2.59,0.48,-6.09,2.01,-1.25,-3.6875,-10.0,-8.4375,0.34600830078125,0.36480712890625,-0.527099609375,0.68511962890625,-18.1875,8.375,-10.0625,8.47,-4.6,1.74
357.47,453531.400196207,28,3,3,3,3,2.24,-2.41,0.56,-6.24,2.18,-1.17,2.25,-3.5,-9.5,0.34661865234375,0.36529541015625,-0.52691650390625,0.6846923828125,-18.1875,9.5,-9.6875,8.48,-4.59,1.74
357.48,453531.400196207,28,3,3,3,3,2.31,-1.59,0.91,-6.17,2.97,-0.84,8.0,2.9375,-9.8125,0.34710693359375,0.36578369140625,-0.52606201171875,0.684814453125,-18.1875,9.5,-9.6875,8.49,-4.57,1.75
357.49,453531.429805533,28,3,3,3,3,2.6,-1.17,1.27,-5.88,3.38,-0.5,12.1875,7.6875,-8.6875,0.34759521484375,0.3660888671875,-0.5247802734375,0.68536376953125,-18.1875,9.5,-9.6875,8.49,-4.55,1.77
357.5,453531.429805533,28,3,3,3,3,3.16,-0.73,1.58,-5.34,3.8,-0.2,12.375,9.3125,-6.75,0.3480224609375,0.3662109375,-0.5235595703125,0.68603515625,-18.1875,9.5,-9.6875,8.5,-4.54,1.79
357.52,453531.445241212,28,3,3,3,3,4.18,-0.51,1.88,-4.32,4.01,0.06,7.0,10.25,-3.125,0.34844970703125,0.365966796875,-0.52276611328125,0.68658447265625,-18.1875,9.5,-9.6875,8.5,-4.53,1.82
357.52,453531.445241212,28,3,3,3,3,7.5,-1.39,1.97,-0.99,3.15,0.15,-3.75,5.3125,1.0625,0.3487548828125,0.365478515625,-0.5228271484375,0.68658447265625,-18.1875,9.0625,-9.25,8.49,-4.54,1.82
357.53,453531.460109703,28,3,3,3,3,9.64,-2.58,1.95,1.14,1.96,0.15,-21.125,-5.5,6.25,0.34881591796875,0.3648681640625,-0.52447509765625,0.68560791015625,-18.1875,9.0625,-9.25,8.49,-4.55,1.79
357.54,453531.460109703,28,3,3,3,3,11.94,-4.21,2.17,3.45,0.37,0.42,-34.5625,-15.0,13.8125,0.348388671875,0.3641357421875,-0.5274658203125,0.6839599609375,-18.1875,9.0625,-9.25,8.48,-4.58,1.74
357.55,453531.492036633,28,3,3,3,3,14.5,-6.46,2.09,6.03,-1.82,0.39,-37.625,-14.5625,24.125,0.34747314453125,0.36273193359375,-0.5308837890625,0.6824951171875,-18.1875,9.0625,-9.25,8.47,-4.63,1.69
357.56,453531.492036633,28,3,3,3,3,19.81,-12.42,2.05,11.36,-7.72,0.39,-38.125,-2.6875,35.4375,0.346435546875,0.360107421875,-0.53436279296875,0.68170166015625,-18.1875,9.0625,-9.25,8.44,-4.69,1.66
357.57,453531.512269916,28,3,3,3,3,22.66,-14.95,2.41,14.25,-10.18,0.77,-40.0625,11.75,39.25,0.345947265625,0.3563232421875,-0.53765869140625,0.681396484375,-17.0625,8.375,-9.25,8.41,-4.76,1.64
357.58,453531.512269916,28,3,3,3,3,24.63,-17.68,4.5,16.25,-12.85,2.85,-24.75,11.75,35.375,0.34521484375,0.35321044921875,-0.53985595703125,0.681640625,-17.0625,8.375,-9.25,8.37,-4.82,1.64
357.6,453531.524715647,28,3,3,3,3,25.2,-18.8,5.79,16.84,-13.94,4.17,-13.0,-4.8125,24.0625,0.34393310546875,0.35198974609375,-0.54150390625,0.68157958984375,-17.0625,8.375,-9.25,8.35,-4.86,1.62
357.6,453531.524715647,28,3,3,3,3,24.68,-17.67,6.12,16.32,-12.79,4.54,-21.375,-15.1875,7.625,0.3433837890625,0.35186767578125,-0.54351806640625,0.68035888671875,-17.0625,8.375,-9.25,8.35,-4.88,1.58
357.61,453531.550349139,28,3,3,3,3,24.46,-17.08,6.28,16.1,-12.19,4.72,-15.625,-9.25,-1.3125,0.343505859375,0.35205078125,-0.544677734375,0.67926025390625,-17.0625,8.375,-9.25,8.35,-4.88,1.55
357.62,453531.550349139,28,3,3,3,3,24.42,-16.32,6.59,16.05,-11.43,5.04,-7.0,0.3125,-2.6875,0.34454345703125,0.3514404296875,-0.54534912109375,0.67852783203125,-16.75,9.5,-9.6875,8.36,-4.88,1.55
357.63,453531.56434388,28,3,3,3,3,23.68,-14.52,6.43,15.32,-9.65,4.87,-4.4375,8.3125,-3.1875,0.34527587890625,0.3509521484375,-0.5452880859375,0.678466796875,-16.75,9.5,-9.6875,8.36,-4.87,1.55
357.64,453531.56434388,28,3,3,3,3,22.44,-13.55,5.83,14.08,-8.68,4.25,0.375,15.5,-3.1875,0.34619140625,0.35015869140625,-0.544677734375,0.6788330078125,-16.75,9.5,-9.6875,8.36,-4.87,1.58
357.65,453531.580844402,28,3,3,3,3,20.2,-12.48,5.05,11.84,-7.61,3.43,6.75,22.4375,-0.6875,0.34710693359375,0.34906005859375,-0.5435791015625,0.6798095703125,-16.75,9.5,-9.6875,8.35,-4.87,1.62
357.67,453531.580844402,28,3,3,3,3,17.67,-11.39,4.39,9.33,-6.52,2.71,15.0,28.0,3.1875,0.3477783203125,0.34771728515625,-0.54193115234375,0.6815185546875,-16.75,9.5,-9.6875,8.34,-4.87,1.67
357.68,453531.594549977,28,3,3,3,3,12.27,-8.52,3.14,3.94,-3.64,1.39,23.4375,34.5625,7.0625,0.34918212890625,0.3453369140625,-0.5401611328125,0.68341064453125,-16.75,10.1875,-9.25,8.32,-4.87,1.74
357.68,453531.594549977,28,3,3,3,3,12.27,-8.52,3.14,3.94,-3.64,1.39,23.4375,34.5625,7.0625,0.34918212890625,0.3453369140625,-0.5401611328125,0.68341064453125,-16.75,10.1875,-9.25,8.32,-4.87,1.74
357.68,453531.625708469,28,3,3,3,3,9.88,-6.88,2.31,1.57,-2.0,0.48,29.875,40.625,9.4375,0.349609375,0.34332275390625,-0.53741455078125,0.68634033203125,-16.75,10.1875,-9.25,8.3,-4.88,1.82
357.69,453531.625708469,28,3,3,3,3,7.81,-5.19,1.42,-0.47,-0.3,-0.49,32.3125,41.625,8.6875,0.35003662109375,0.3414306640625,-0.53448486328125,0.6893310546875,-16.75,10.1875,-9.25,8.28,-4.88,1.91
357.7,453531.633174043,28,3,3,3,3,6.08,-3.57,0.75,-2.18,1.3,-1.24,29.875,38.25,5.6875,0.3505859375,0.3397216796875,-0.53167724609375,0.69207763671875,-16.75,10.1875,-9.25,8.26,-4.88,1.99
357.71,453531.633174043,28,3,3,3,3,2.95,-0.86,-0.21,-5.3,4.01,-2.27,23.6875,31.5,1.25,0.35125732421875,0.3385009765625,-0.52935791015625,0.69415283203125,-16.75,10.1875,-9.25,8.25,-4.87,2.06
357.72,453531.6559154,28,3,3,3,3,1.5,0.27,-0.44,-6.74,5.13,-2.55,16.5625,22.875,-3.8125,0.35137939453125,0.33831787109375,-0.52716064453125,0.69580078125,-17.5,8.6875,-10.0625,8.25,-4.86,2.11
357.73,453531.6559154,28,3,3,3,3,0.18,1.16,-0.67,-8.07,6.0,-2.81,8.125,14.3125,-9.0,0.35235595703125,0.33807373046875,-0.5260009765625,0.69635009765625,-17.5,8.6875,-10.0625,8.25,-4.84,2.13
357.74,453531.669315818,28,3,3,3,3,-0.85,1.81,-0.65,-9.11,6.64,-2.8,0.0,9.1875,-13.0,0.35357666015625,0.338134765625,-0.52532958984375,0.69622802734375,-17.5,8.6875,-10.0625,8.25,-4.82,2.15
357.76,453531.669315818,28,3,3,3,3,-2.24,2.02,-0.8,-10.5,6.83,-2.96,-3.9375,5.5,-13.5625,0.35479736328125,0.3382568359375,-0.52496337890625,0.69573974609375,-17.5,8.6875,-10.0625,8.26,-4.81,2.15
357.77,453531.698808164,28,3,3,3,3,-2.38,1.96,-0.95,-10.66,6.76,-3.11,-7.3125,1.3125,-12.125,0.35577392578125,0.3385009765625,-0.5250244140625,0.695068359375,-17.5,8.6875,-10.0625,8.27,-4.79,2.15
357.77,453531.698808164,28,3,3,3,3,-2.49,1.71,-0.98,-10.78,6.5,-3.12,-10.6875,-6.625,-9.9375,0.35638427734375,0.33905029296875,-0.52557373046875,0.694091796875,-16.75,9.0625,-8.875,8.28,-4.78,2.13
357.78,453531.729984886,28,3,3,3,3,-2.02,1.46,-0.7,-10.32,6.24,-2.81,-13.4375,-14.125,-8.25,0.35662841796875,0.33984375,-0.526611328125,0.69281005859375,-16.75,9.0625,-8.875,8.3,-4.77,2.1
357.79,453531.729984886,28,3,3,3,3,-1.75,1.45,-0.72,-10.07,6.22,-2.77,-15.375,-22.8125,-7.1875,0.35650634765625,0.34112548828125,-0.52801513671875,0.691162109375,-16.75,9.0625,-8.875,8.31,-4.77,2.05
357.81,453531.746062127,28,3,3,3,3,-0.55,1.12,-0.47,-8.9,5.89,-2.42,-16.875,-25.875,-4.9375,0.355712890625,0.34375,-0.53131103515625,0.687744140625,-16.75,9.0625,-8.875,8.34,-4.76,1.95
357.83,453531.746062127,28,3,3,3,3,0.95,0.39,-0.05,-7.4,5.15,-1.95,-17.25,-26.3125,-4.1875,0.35528564453125,0.344970703125,-0.53302001953125,0.68603515625,-17.5,9.5,-9.6875,8.35,-4.76,1.89
357.84,453531.760326347,28,3,3,3,3,1.7,0.04,-0.09,-6.65,4.8,-1.93,-17.0,-25.875,-4.75,0.3548583984375,0.34619140625,-0.53472900390625,0.684326171875,-17.5,9.5,-9.6875,8.36,-4.76,1.84
357.85,453531.760326347,28,3,3,3,3,2.32,-0.34,-0.05,-6.05,4.41,-1.85,-15.8125,-24.5625,-6.4375,0.35455322265625,0.34747314453125,-0.5362548828125,0.6826171875,-17.5,9.5,-9.6875,8.38,-4.76,1.79
357.85,453531.789540673,28,3,3,3,3,2.75,-0.79,-0.1,-5.64,3.96,-1.85,-13.875,-23.0625,-8.8125,0.35443115234375,0.348876953125,-0.5374755859375,0.6810302734375,-17.5,9.5,-9.6875,8.39,-4.75,1.75
357.86,453531.789540673,28,3,3,3,3,3.13,-1.69,-0.11,-5.28,3.04,-1.82,-11.375,-22.75,-11.625,0.35443115234375,0.35040283203125,-0.53851318359375,0.679443359375,-17.5,9.5,-9.6875,8.41,-4.74,1.71
357.87,453531.803769268,28,3,3,3,3,2.93,-2.02,-0.06,-5.5,2.69,-1.73,-7.6875,-21.8125,-14.1875,0.35443115234375,0.35211181640625,-0.53924560546875,0.67791748046875,-17.875,9.5,-9.6875,8.43,-4.72,1.67
357.88,453531.803769268,28,3,3,3,3,2.47,-2.15,0.12,-5.97,2.54,-1.51,-2.625,-19.5,-16.3125,0.35455322265625,0.35400390625,-0.53948974609375,0.67669677734375,-17.875,9.5,-9.6875,8.44,-4.69,1.64
357.89,453531.835967709,28,3,3,3,3,2.05,-2.04,0.22,-6.41,2.62,-1.4,3.3125,-15.1875,-17.9375,0.35479736328125,0.3558349609375,-0.5391845703125,0.67584228515625,-17.875,9.5,-9.6875,8.46,-4.67,1.62
357.91,453531.835967709,28,3,3,3,3,1.4,-1.63,0.17,-7.08,3.0,-1.44,10.6875,-8.125,-17.625,0.3551025390625,0.35748291015625,-0.53826904296875,0.675537109375,-17.875,9.5,-9.6875,8.48,-4.64,1.61
357.92,453531.850405315,28,3,3,3,3,1.49,-1.35,0.09,-7.0,3.25,-1.53,16.5625,-0.1875,-16.0,0.35552978515625,0.3587646484375,-0.53680419921875,0.67584228515625,-17.875,9.5,-9.6875,8.49,-4.61,1.63
357.93,453531.850405315,28,3,3,3,3,2.02,-1.06,0.37,-6.48,3.51,-1.27,17.9375,6.375,-14.8125,0.35638427734375,0.35943603515625,-0.53515625,0.67626953125,-17.5,9.5,-9.25,8.5,-4.58,1.65
357.93,453531.857031513,28,3,3,3,3,2.02,-1.06,0.37,-6.48,3.51,-1.27,17.9375,6.375,-14.8125,0.35638427734375,0.35943603515625,-0.53515625,0.67626953125,-17.5,9.5,-9.25,8.5,-4.58,1.65
357.93,453531.857031513,28,3,3,3,3,4.06,-0.36,1.69,-4.45,4.19,0.01,14.0,7.5625,-14.875,0.357177734375,0.36016845703125,-0.53363037109375,0.67669677734375,-17.5,9.5,-9.25,8.51,-4.56,1.67
357.94,453531.880597245,28,3,3,3,3,5.62,-0.45,2.63,-2.9,4.08,0.95,7.5,2.375,-15.0625,0.35791015625,0.3609619140625,-0.53265380859375,0.67669677734375,-17.5,9.5,-9.25,8.52,-4.53,1.68
357.95,453531.880597245,28,3,3,3,3,7.39,-1.07,3.28,-1.14,3.43,1.61,-1.375,-6.3125,-13.4375,0.35845947265625,0.36187744140625,-0.53253173828125,0.67596435546875,-17.5,9.5,-9.25,8.54,-4.51,1.67
357.96,453531.894507402,28,3,3,3,3,9.36,-2.0,3.04,0.8,2.49,1.4,-12.125,-15.1875,-9.4375,0.35870361328125,0.36285400390625,-0.53338623046875,0.67462158203125,-17.5,9.5,-9.25,8.55,-4.5,1.64
357.97,453531.894507402,28,3,3,3,3,14.35,-6.22,-0.17,5.79,-1.71,-1.77,-20.875,-21.125,-0.5,0.3575439453125,0.36407470703125,-0.53485107421875,0.67340087890625,-18.5625,8.375,-8.5625,8.56,-4.51,1.59
357.99,453531.911291415,28,3,3,3,3,17.1,-9.19,-0.53,8.55,-4.66,-2.08,-25.4375,-15.6875,8.5,0.35711669921875,0.36383056640625,-0.537109375,0.6719970703125,-18.5625,8.375,-8.5625,8.55,-4.53,1.55
358.0,453531.911291415,28,3,3,3,3,20.0,-11.21,-0.04,11.44,-6.65,-1.56,-29.625,-7.5625,10.0,0.35711669921875,0.3629150390625,-0.5394287109375,0.670654296875,-18.5625,8.375,-8.5625,8.55,-4.55,1.51
358.01,453531.942013188,28,3,3,3,3,23.3,-13.52,2.3,14.75,-8.95,0.81,-26.5,-7.8125,6.5625,0.35723876953125,0.36224365234375,-0.5413818359375,0.66937255859375,-18.5625,8.375,-8.5625,8.54,-4.57,1.48
358.02,453531.942013188,28,3,3,3,3,26.62,-19.06,4.7,18.07,-14.49,3.26,-24.0,-13.5,-1.75,0.35748291015625,0.36236572265625,-0.54315185546875,0.667724609375,-18.5625,8.375,-8.5625,8.55,-4.57,1.44
358.02,453531.953512669,28,3,3,3,3,26.91,-19.11,4.49,18.34,-14.55,3.1,-23.4375,-20.875,-14.4375,0.35870361328125,0.36297607421875,-0.54510498046875,0.6651611328125,-17.875,9.5,-9.6875,8.57,-4.55,1.39
358.03,453531.953512669,28,3,3,3,3,27.25,-18.93,5.22,18.66,-14.4,3.85,-13.6875,-9.5625,-24.0,0.360107421875,0.3642578125,-0.54547119140625,0.6634521484375,-17.875,9.5,-9.6875,8.59,-4.52,1.36
358.04,453531.969351681,28,3,3,3,3,27.28,-18.04,5.21,18.67,-13.55,3.83,2.0,7.625,-23.5625,0.36175537109375,0.364990234375,-0.54437255859375,0.66302490234375,-17.875,9.5,-9.6875,8.6,-4.48,1.38
358.05,453531.969351681,28,3,3,3,3,25.22,-14.39,5.55,16.6,-9.93,4.13,12.5625,20.125,-18.8125,0.3634033203125,0.3651123046875,-0.54241943359375,0.6636962890625,-17.875,9.5,-9.6875,8.61,-4.45,1.42
358.07,453532.001661215,28,3,3,3,3,23.97,-12.41,5.31,15.35,-7.98,3.84,20.3125,25.6875,-13.8125,0.36474609375,0.36492919921875,-0.53997802734375,0.66497802734375,-17.875,9.5,-9.6875,8.62,-4.43,1.47
358.08,453532.001661215,28,3,3,3,3,22.16,-10.64,4.64,13.54,-6.22,3.1,28.375,26.4375,-6.5625,0.365478515625,0.36456298828125,-0.53729248046875,0.6669921875,-18.1875,9.0625,-8.875,8.62,-4.41,1.53
358.09,453532.015508092,28,3,3,3,3,17.35,-7.87,3.37,8.74,-3.46,1.76,34.125,27.9375,-0.0625,0.36566162109375,0.364013671875,-0.534423828125,0.66943359375,-18.1875,9.0625,-8.875,8.61,-4.4,1.6
358.1,453532.015508092,28,3,3,3,3,15.08,-6.73,2.84,6.48,-2.33,1.16,37.375,30.6875,4.8125,0.36566162109375,0.36322021484375,-0.5313720703125,0.67230224609375,-18.1875,9.0625,-8.875,8.6,-4.4,1.68
358.1,453532.030785229,28,3,3,3,3,12.85,-5.9,2.69,4.27,-1.49,0.93,38.75,34.8125,9.8125,0.36541748046875,0.3619384765625,-0.5283203125,0.675537109375,-18.1875,9.0625,-8.875,8.58,-4.4,1.76
358.11,453532.030785229,28,3,3,3,3,10.79,-5.08,2.51,2.23,-0.67,0.66,40.8125,38.3125,14.0,0.36505126953125,0.3603515625,-0.525146484375,0.6790771484375,-18.1875,9.0625,-8.875,8.55,-4.41,1.85
358.12,453532.079606535,28,3,3,3,3,7.47,-3.32,1.85,-1.05,1.1,-0.08,40.25,38.0625,16.75,0.36492919921875,0.3582763671875,-0.52227783203125,0.68243408203125,-17.5,8.6875,-10.5,8.53,-4.42,1.93
358.13,453532.079606535,28,3,3,3,3,6.19,-2.65,1.46,-2.31,1.78,-0.55,37.625,33.625,18.125,0.36419677734375,0.35662841796875,-0.51953125,0.685791015625,-17.5,8.6875,-10.5,8.5,-4.43,2.01
358.15,453532.08622388,28,3,3,3,3,4.94,-2.09,1.14,-3.54,2.35,-0.94,35.75,29.375,18.5625,0.36328125,0.35516357421875,-0.51702880859375,0.68890380859375,-17.5,8.6875,-10.5,8.48,-4.45,2.08
358.16,453532.08622388,28,3,3,3,3,3.71,-1.66,0.79,-4.74,2.8,-1.35,33.875,24.625,18.0625,0.36224365234375,0.35394287109375,-0.5147705078125,0.6917724609375,-17.5,8.6875,-10.5,8.45,-4.46,2.15
358.17,453532.093001224,28,3,3,3,3,1.43,-1.07,0.09,-7.0,3.4,-2.11,29.8125,17.125,15.3125,0.36114501953125,0.3531494140625,-0.51287841796875,0.694091796875,-17.5,8.6875,-10.5,8.44,-4.48,2.2
358.18,453532.093001224,28,3,3,3,3,0.73,-0.6,-0.23,-7.69,3.87,-2.46,22.875,8.0,9.625,0.36102294921875,0.3524169921875,-0.51190185546875,0.69525146484375,-16.75,8.6875,-11.25,8.43,-4.48,2.23
358.18,453532.119549717,28,3,3,3,3,0.26,-0.02,-0.56,-8.16,4.46,-2.8,14.75,0.0,2.1875,0.36041259765625,0.352783203125,-0.5111083984375,0.69598388671875,-16.75,8.6875,-11.25,8.42,-4.48,2.24
358.19,453532.119549717,28,3,3,3,3,0.26,-0.02,-0.56,-8.16,4.46,-2.8,14.75,0.0,2.1875,0.36041259765625,0.352783203125,-0.5111083984375,0.69598388671875,-16.75,8.6875,-11.25,8.42,-4.48,2.24
358.2,453532.124596592,28,3,3,3,3,0.17,0.43,-0.8,-8.26,4.9,-3.04,9.75,-6.0,-2.875,0.3599853515625,0.35357666015625,-0.5106201171875,0.6961669921875,-16.75,8.6875,-11.25,8.43,-4.47,2.24
358.2,453532.124596592,28,3,3,3,3,-0.07,0.63,-0.88,-8.51,5.09,-3.11,7.25,-10.875,-3.625,0.3594970703125,0.35467529296875,-0.51043701171875,0.696044921875,-16.75,8.6875,-11.25,8.44,-4.46,2.23
358.22,453532.150603834,28,3,3,3,3,-0.32,0.69,-0.75,-8.77,5.15,-2.96,5.6875,-15.625,-2.375,0.3587646484375,0.35589599609375,-0.510498046875,0.69573974609375,-16.75,8.6875,-11.25,8.44,-4.46,2.21
358.23,453532.150603834,28,3,3,3,3,-0.57,0.82,-0.57,-9.03,5.28,-2.76,4.0,-18.3125,-0.875,0.35858154296875,0.356689453125,-0.51116943359375,0.6949462890625,-17.0625,9.0625,-10.5,8.45,-4.45,2.18
358.24,453532.1640317,28,3,3,3,3,-0.67,0.96,-0.28,-9.14,5.42,-2.44,1.875,-21.0,1.3125,0.35748291015625,0.35791015625,-0.51171875,0.69439697265625,-17.0625,9.0625,-10.5,8.46,-4.45,2.15
358.25,453532.1640317,28,3,3,3,3,-0.43,0.97,0.15,-8.9,5.44,-1.97,0.0,-23.0,3.75,0.35626220703125,0.359130859375,-0.5125732421875,0.69378662109375,-17.0625,9.0625,-10.5,8.46,-4.46,2.12
358.26,453532.180744566,28,3,3,3,3,-0.33,0.99,0.28,-8.81,5.47,-1.8,-1.5,-23.8125,5.25,0.35491943359375,0.36029052734375,-0.5135498046875,0.69317626953125,-17.0625,9.0625,-10.5,8.47,-4.47,2.08
358.27,453532.180744566,28,3,3,3,3,0.06,0.74,0.33,-8.41,5.22,-1.7,-2.75,-24.125,5.5625,0.35357666015625,0.3614501953125,-0.5146484375,0.69244384765625,-17.0625,9.0625,-10.5,8.47,-4.48,2.04
358.27,453532.210933111,28,3,3,3,3,0.81,0.18,0.35,-7.66,4.68,-1.65,-3.8125,-23.875,5.125,0.35302734375,0.36199951171875,-0.51617431640625,0.6912841796875,-16.75,8.6875,-11.25,8.48,-4.49,2.01
358.28,453532.210933111,28,3,3,3,3,1.25,-0.05,0.49,-7.23,4.43,-1.47,-5.3125,-23.25,3.125,0.3519287109375,0.36309814453125,-0.517333984375,0.6904296875,-16.75,8.6875,-11.25,8.48,-4.49,1.97
358.29,453532.225176758,28,3,3,3,3,1.65,-0.27,0.58,-6.83,4.22,-1.35,-6.0625,-21.375,-0.1875,0.3511962890625,0.36419677734375,-0.51837158203125,0.689453125,-16.75,8.6875,-11.25,8.49,-4.5,1.93
358.31,453532.225176758,28,3,3,3,3,2.04,-0.56,0.68,-6.46,3.93,-1.21,-5.0625,-19.6875,-3.625,0.35064697265625,0.36541748046875,-0.5191650390625,0.6884765625,-16.75,8.6875,-11.25,8.5,-4.49,1.9
358.32,453532.241017333,28,3,3,3,3,2.18,-0.83,0.71,-6.32,3.64,-1.15,-3.3125,-18.0,-6.6875,0.350341796875,0.36669921875,-0.5196533203125,0.68756103515625,-16.75,8.6875,-11.25,8.51,-4.48,1.87
358.33,453532.241017333,28,3,3,3,3,1.98,-0.83,0.7,-6.54,3.63,-1.14,-0.8125,-16.375,-9.875,0.3502197265625,0.36810302734375,-0.5198974609375,0.68670654296875,-17.5,8.375,-9.6875,8.52,-4.47,1.84
358.34,453532.286108223,28,3,3,3,3,1.72,-0.85,0.74,-6.81,3.6,-1.08,1.4375,-13.3125,-11.75,0.35028076171875,0.3695068359375,-0.51983642578125,0.68597412109375,-17.5,8.375,-9.6875,8.54,-4.45,1.82
358.35,453532.286108223,28,3,3,3,3,1.43,-0.91,0.77,-7.11,3.52,-1.04,4.375,-8.25,-12.25,0.35052490234375,0.37066650390625,-0.51947021484375,0.68548583984375,-17.5,8.375,-9.6875,8.55,-4.43,1.81
358.35,453532.301620308,28,3,3,3,3,1.23,-1.01,0.52,-7.32,3.4,-1.29,8.5625,-3.0,-12.0,0.350830078125,0.37164306640625,-0.51861572265625,0.6854248046875,-17.5,8.375,-9.6875,8.56,-4.41,1.82
358.36,453532.301620308,28,3,3,3,3,1.47,-1.17,0.48,-7.09,3.21,-1.34,13.25,2.1875,-10.9375,0.35113525390625,0.3724365234375,-0.51739501953125,0.685791015625,-17.5,8.375,-9.6875,8.57,-4.39,1.83
358.38,453532.314470101,28,3,3,3,3,2.0,-1.34,0.6,-6.57,3.03,-1.24,14.1875,5.9375,-10.6875,0.35198974609375,0.3726806640625,-0.51629638671875,0.68603515625,-16.75,8.375,-9.25,8.57,-4.37,1.85
358.39,453532.314470101,28,3,3,3,3,2.85,-1.54,0.82,-5.72,2.8,-1.05,12.0,7.5,-12.875,0.35272216796875,0.3731689453125,-0.514892578125,0.68646240234375,-16.75,8.375,-9.25,8.58,-4.35,1.87
358.4,453532.329039321,28,3,3,3,3,5.91,-1.69,1.76,-2.67,2.63,-0.12,5.875,4.75,-16.9375,0.353759765625,0.37384033203125,-0.51385498046875,0.68634033203125,-16.75,8.375,-9.25,8.59,-4.32,1.88
358.41,453532.329039321,28,3,3,3,3,7.76,-1.58,2.48,-0.85,2.7,0.6,-5.375,-3.5,-22.3125,0.3551025390625,0.3748779296875,-0.5135498046875,0.685302734375,-16.75,8.375,-9.25,8.61,-4.29,1.87
358.42,453532.344214374,28,3,3,3,3,9.98,-1.71,2.78,1.34,2.54,0.94,-18.3125,-17.3125,-25.375,0.3564453125,0.37652587890625,-0.51434326171875,0.68310546875,-16.75,8.375,-9.25,8.64,-4.25,1.83
358.43,453532.344214374,28,3,3,3,3,15.11,-3.64,2.96,6.44,0.58,1.2,-32.25,-32.0,-22.375,0.35870361328125,0.37744140625,-0.5172119140625,0.67919921875,-16.375,8.6875,-10.875,8.66,-4.23,1.76
358.43,453532.359795365,28,3,3,3,3,17.93,-6.5,2.82,9.24,-2.27,1.15,-44.3125,-39.1875,-9.3125,0.35894775390625,0.3787841796875,-0.520751953125,0.6756591796875,-16.375,8.6875,-10.875,8.68,-4.23,1.67
358.44,453532.359795365,28,3,3,3,3,20.77,-10.57,1.63,12.08,-6.3,0.05,-48.0625,-39.0625,11.75,0.35809326171875,0.3790283203125,-0.52520751953125,0.6724853515625,-16.375,8.6875,-10.875,8.68,-4.26,1.57
358.45,453532.374150679,28,3,3,3,3,20.77,-10.57,1.63,12.08,-6.3,0.05,-48.0625,-39.0625,11.75,0.35809326171875,0.3790283203125,-0.52520751953125,0.6724853515625,-16.375,8.6875,-10.875,8.68,-4.26,1.57
358.46,453532.374150679,28,3,3,3,3,23.2,-14.24,1.82,14.53,-9.92,0.3,-25.4375,-27.125,28.625,0.35595703125,0.3785400390625,-0.52850341796875,0.67132568359375,-16.375,8.6875,-10.875,8.67,-4.31,1.51
358.47,453532.389348441,28,3,3,3,3,25.7,-19.86,4.73,17.05,-15.49,3.23,3.6875,-17.3125,33.6875,0.35308837890625,0.37811279296875,-0.5299072265625,0.6719970703125,-16.375,8.6875,-10.875,8.65,-4.36,1.49
358.48,453532.389348441,28,3,3,3,3,25.29,-18.75,4.71,16.65,-14.35,3.23,13.8125,-17.125,23.625,0.35137939453125,0.37774658203125,-0.53094482421875,0.67230224609375,-18.1875,9.0625,-9.25,8.63,-4.39,1.47
358.49,453532.420595632,28,3,3,3,3,24.33,-17.25,5.2,15.7,-12.84,3.73,13.375,-11.9375,12.0625,0.34967041015625,0.3782958984375,-0.5308837890625,0.67291259765625,-18.1875,9.0625,-9.25,8.63,-4.41,1.47
358.5,453532.420595632,28,3,3,3,3,23.53,-16.19,5.85,14.9,-11.77,4.37,17.4375,-3.8125,5.6875,0.34857177734375,0.3787841796875,-0.5301513671875,0.67376708984375,-18.1875,9.0625,-9.25,8.62,-4.41,1.47
358.51,453532.434990477,28,3,3,3,3,23.05,-14.18,5.46,14.43,-9.76,3.95,19.875,7.875,6.5625,0.34783935546875,0.37860107421875,-0.52899169921875,0.67510986328125,-18.1875,9.0625,-9.25,8.62,-4.42,1.5
358.52,453532.434990477,28,3,3,3,3,22.95,-13.17,5.6,14.34,-8.74,4.05,21.25,16.4375,10.875,0.3472900390625,0.3778076171875,-0.527587890625,0.677001953125,-18.1875,9.0625,-9.25,8.6,-4.43,1.54
358.52,453532.465010532,28,3,3,3,3,22.81,-12.39,5.52,14.22,-7.94,3.92,23.8125,19.3125,15.75,0.3472900390625,0.3759765625,-0.526611328125,0.67877197265625,-16.75,8.6875,-8.875,8.59,-4.44,1.59
358.54,453532.465010532,28,3,3,3,3,22.26,-11.49,5.23,13.68,-7.02,3.59,26.3125,18.9375,19.125,0.34619140625,0.374755859375,-0.52508544921875,0.68115234375,-16.75,8.6875,-8.875,8.57,-4.47,1.64
358.55,453532.481061523,28,3,3,3,3,19.43,-9.58,4.52,10.88,-5.09,2.82,30.9375,18.25,20.75,0.3447265625,0.37359619140625,-0.52337646484375,0.683837890625,-16.75,8.6875,-8.875,8.55,-4.49,1.69
358.56,453532.481061523,28,3,3,3,3,17.25,-8.74,4.15,8.72,-4.22,2.39,34.75,19.625,21.6875,0.34320068359375,0.37249755859375,-0.52142333984375,0.68670654296875,-16.75,8.6875,-8.875,8.52,-4.51,1.75
358.57,453532.496401369,28,3,3,3,3,14.91,-7.71,3.61,6.41,-3.18,1.79,39.9375,21.375,21.75,0.341552734375,0.37139892578125,-0.51910400390625,0.68988037109375,-16.75,8.6875,-8.875,8.5,-4.53,1.81
358.58,453532.496401369,28,3,3,3,3,10.66,-5.14,2.53,2.18,-0.59,0.65,43.4375,22.3125,19.5625,0.34124755859375,0.3695068359375,-0.51715087890625,0.6925048828125,-17.0625,9.0625,-10.875,8.48,-4.55,1.88
358.59,453532.509633922,28,3,3,3,3,8.97,-3.86,1.74,0.51,0.69,-0.2,41.8125,22.25,17.375,0.33984375,0.36859130859375,-0.5145263671875,0.69561767578125,-17.0625,9.0625,-10.875,8.45,-4.56,1.94
358.6,453532.509633922,28,3,3,3,3,7.46,-2.68,0.91,-0.97,1.88,-1.08,37.75,19.75,15.6875,0.33856201171875,0.3677978515625,-0.51214599609375,0.69842529296875,-17.0625,9.0625,-10.875,8.43,-4.57,2.0
358.6,453532.540888196,28,3,3,3,3,6.33,-1.79,0.47,-2.09,2.78,-1.58,31.0625,16.8125,14.0625,0.33746337890625,0.3670654296875,-0.51019287109375,0.7008056640625,-17.0625,9.0625,-10.875,8.42,-4.58,2.05
358.62,453532.540888196,28,3,3,3,3,4.51,-0.34,-0.17,-3.89,4.24,-2.27,22.1875,14.75,12.0,0.336669921875,0.36627197265625,-0.5087890625,0.70257568359375,-17.0625,9.0625,-10.875,8.4,-4.59,2.09
358.63,453532.555500281,28,3,3,3,3,3.65,0.32,-0.45,-4.73,4.92,-2.57,13.9375,13.25,9.25,0.33709716796875,0.3648681640625,-0.50823974609375,0.7034912109375,-16.375,8.6875,-9.6875,8.39,-4.6,2.12
358.64,453532.555500281,28,3,3,3,3,2.85,0.74,-0.64,-5.52,5.35,-2.79,6.875,10.3125,7.125,0.33685302734375,0.36407470703125,-0.50775146484375,0.704345703125,-16.375,8.6875,-9.6875,8.38,-4.6,2.14
358.65,453532.57125273,28,3,3,3,3,2.13,1.02,-0.87,-6.24,5.64,-3.03,0.125,9.3125,6.1875,0.3369140625,0.36328125,-0.5076904296875,0.704833984375,-16.375,8.6875,-9.6875,8.37,-4.61,2.16
358.66,453532.57125273,28,3,3,3,3,0.89,1.24,-0.81,-7.47,5.87,-2.99,-4.0625,10.1875,5.75,0.33709716796875,0.36224365234375,-0.5078125,0.70513916015625,-16.375,8.6875,-9.6875,8.36,-4.62,2.17
358.67,453532.599283879,28,3,3,3,3,0.7,0.88,-0.83,-7.65,5.52,-3.02,-5.25,12.0625,6.125,0.33746337890625,0.361083984375,-0.50799560546875,0.7054443359375,-16.375,8.6875,-9.6875,8.35,-4.63,2.18
358.68,453532.599283879,28,3,3,3,3,0.67,0.19,-0.96,-7.67,4.85,-3.16,-3.75,14.75,7.375,0.338623046875,0.359130859375,-0.50848388671875,0.70556640625,-17.0625,9.0625,-10.875,8.34,-4.65,2.2
358.68,453532.614509453,28,3,3,3,3,0.64,-0.51,-0.92,-7.69,4.14,-3.15,-1.625,15.5,9.125,0.33880615234375,0.35772705078125,-0.50836181640625,0.70623779296875,-17.0625,9.0625,-10.875,8.33,-4.66,2.22
358.7,453532.614509453,28,3,3,3,3,0.67,-1.02,-0.73,-7.65,3.65,-2.98,0.4375,16.0,7.8125,0.33905029296875,0.35638427734375,-0.5081787109375,0.70697021484375,-17.0625,9.0625,-10.875,8.32,-4.67,2.25
358.71,453532.63046659,28,3,3,3,3,0.68,-0.87,-0.55,-7.62,3.8,-2.82,2.4375,17.9375,3.75,0.33953857421875,0.35516357421875,-0.507568359375,0.707763671875,-17.0625,9.0625,-10.875,8.31,-4.68,2.27
358.72,453532.63046659,28,3,3,3,3,0.78,-0.62,-0.34,-7.52,4.05,-2.65,4.375,20.5,-0.625,0.34033203125,0.35406494140625,-0.5067138671875,0.70855712890625,-17.0625,9.0625,-10.875,8.3,-4.67,2.31
358.72,453532.64717805,28,3,3,3,3,0.78,-0.62,-0.34,-7.52,4.05,-2.65,4.375,20.5,-0.625,0.34033203125,0.35406494140625,-0.5067138671875,0.70855712890625,-17.0625,9.0625,-10.875,8.3,-4.67,2.31
358.73,453532.64717805,28,3,3,3,3,0.93,-0.42,0.01,-7.35,4.24,-2.33,5.3125,22.625,-4.1875,0.342041015625,0.35260009765625,-0.505859375,0.70904541015625,-16.75,8.6875,-11.6875,8.29,-4.66,2.34
358.74,453532.662529979,28,3,3,3,3,0.97,-0.25,0.37,-7.32,4.4,-2.01,6.5,24.5,-6.75,0.34332275390625,0.3515625,-0.5045166015625,0.70989990234375,-16.75,8.6875,-11.6875,8.29,-4.65,2.38
358.75,453532.662529979,28,3,3,3,3,1.02,-0.25,0.57,-7.26,4.38,-1.86,9.8125,27.375,-9.1875,0.34478759765625,0.3505859375,-0.5028076171875,0.71087646484375,-16.75,8.6875,-11.6875,8.28,-4.63,2.43
358.76,453532.690340503,28,3,3,3,3,1.24,-0.39,0.72,-7.04,4.22,-1.76,12.625,30.0,-10.25,0.34637451171875,0.34954833984375,-0.50079345703125,0.7120361328125,-16.75,8.6875,-11.6875,8.28,-4.61,2.49
358.77,453532.690340503,28,3,3,3,3,1.47,-0.8,0.77,-6.79,3.79,-1.77,13.9375,31.5625,-9.125,0.347900390625,0.34844970703125,-0.49871826171875,0.71331787109375,-16.75,8.6875,-11.6875,8.27,-4.59,2.54
358.78,453532.7047029,28,3,3,3,3,1.38,-0.97,0.79,-6.88,3.6,-1.8,15.5,33.875,-6.625,0.34930419921875,0.34710693359375,-0.49652099609375,0.71484375,-17.5,8.6875,-11.25,8.26,-4.58,2.6
358.79,453532.7047029,28,3,3,3,3,1.14,-1.09,0.78,-7.1,3.47,-1.89,16.8125,35.5,-4.6875,0.35064697265625,0.3455810546875,-0.4942626953125,0.71649169921875,-17.5,8.6875,-11.25,8.25,-4.56,2.67
358.8,453532.720311026,28,3,3,3,3,0.83,-1.06,0.67,-7.4,3.48,-2.05,17.0625,34.375,-4.625,0.35186767578125,0.34417724609375,-0.49200439453125,0.7181396484375,-17.5,8.6875,-11.25,8.24,-4.55,2.73
358.81,453532.720311026,28,3,3,3,3,0.35,-0.35,0.39,-7.87,4.18,-2.4,16.1875,33.6875,-6.5625,0.353271484375,0.34283447265625,-0.48974609375,0.7196044921875,-17.5,8.6875,-11.25,8.23,-4.53,2.79
