timestamp,calib_mag,calib_accel,calib_gyro,calib_sys,lacc_x,lacc_y,lacc_z,gyro_x,gyro_y,gyro_z,quat_w,quat_x,quat_y,quat_z,label
59.85,3,1,3,0,-0.0300,0.3900,0.0400,-6.7500,-10.0000,-1.6875,0.46807861328125,-0.57989501953125,0.53540039062500,0.39752197265625,moving
59.87,3,1,3,0,0.0200,0.4000,-0.1200,-6.1250,-10.0000,-1.8750,0.46820068359375,-0.57983398437500,0.53472900390625,0.39837646484375,moving
59.88,3,1,3,0,0.0000,0.2800,-0.6800,-5.9375,-8.7500,-2.3750,0.46838378906250,-0.57983398437500,0.53405761718750,0.39898681640625,moving
59.89,3,1,3,0,-0.0500,0.1100,-0.9100,-6.3125,-6.6875,-2.6875,0.46844482421875,-0.58001708984375,0.53344726562500,0.39953613281250,moving
59.90,3,1,3,0,-0.1600,-0.0600,-1.0900,-7.0000,-4.7500,-3.1875,0.46844482421875,-0.58026123046875,0.53283691406250,0.39996337890625,moving
59.91,3,1,3,0,-0.1100,-0.1600,-1.2200,-6.6875,-3.1250,-4.1250,0.46838378906250,-0.58062744140625,0.53222656250000,0.40026855468750,moving
59.92,3,1,3,0,0.0400,-0.4100,-1.2700,-5.5000,-1.2500,-4.8125,0.46832275390625,-0.58099365234375,0.53173828125000,0.40039062500000,moving
59.92,3,1,3,0,0.2300,-0.4700,-1.2400,-4.1875,1.5625,-5.0000,0.46820068359375,-0.58148193359375,0.53143310546875,0.40032958984375,moving
59.93,3,1,3,0,0.4700,-0.5400,-1.2200,-2.7500,4.3125,-4.7500,0.46801757812500,-0.58197021484375,0.53125000000000,0.40002441406250,moving
59.94,3,1,3,0,0.6600,-0.6700,-1.1600,-0.6250,7.0625,-4.2500,0.46783447265625,-0.58245849609375,0.53131103515625,0.39953613281250,moving
59.96,3,1,3,0,0.9700,-0.8800,-0.9800,1.8750,9.6250,-3.7500,0.46759033203125,-0.58288574218750,0.53155517578125,0.39880371093750,moving
59.97,3,1,3,0,1.1000,-0.7500,-0.9500,5.3125,11.1875,-3.0000,0.46746826171875,-0.58319091796875,0.53210449218750,0.39782714843750,moving
59.98,3,1,3,0,1.2200,-0.6200,-0.9400,9.5625,11.5000,-2.3125,0.46746826171875,-0.58331298828125,0.53277587890625,0.39672851562500,moving
59.99,3,1,3,0,1.3200,-0.6300,-0.8900,14.3750,10.8125,-0.2500,0.46771240234375,-0.58306884765625,0.53369140625000,0.39550781250000,moving
60.00,3,1,3,0,1.4400,-0.5900,-0.7500,18.3125,12.5000,1.7500,0.46795654296875,-0.58270263671875,0.53491210937500,0.39404296875000,moving
60.00,3,1,3,0,1.5200,-0.6000,-0.5500,20.1250,13.5000,3.1875,0.46826171875000,-0.58221435546875,0.53637695312500,0.39257812500000,moving
60.02,3,1,3,0,1.6300,-0.7200,-0.2500,20.4375,13.9375,3.5625,0.46850585937500,-0.58166503906250,0.53778076171875,0.39105224609375,moving
60.03,3,1,3,0,1.5500,-0.3800,0.2600,17.3750,17.5625,3.3750,0.46844482421875,-0.58142089843750,0.53930664062500,0.38946533203125,moving
60.04,3,1,3,0,1.3800,-0.1200,0.8800,11.9375,21.2500,1.3750,0.46801757812500,-0.58160400390625,0.54064941406250,0.38787841796875,moving
60.05,3,1,3,0,1.1200,0.3700,1.6800,8.3125,21.7500,1.3125,0.46734619140625,-0.58190917968750,0.54187011718750,0.38641357421875,moving
60.06,3,1,3,0,0.6600,0.9900,2.7700,8.7500,12.5625,2.8750,0.46710205078125,-0.58184814453125,0.54284667968750,0.38543701171875,moving
60.07,3,1,3,0,0.3700,1.9000,3.1600,9.6875,2.3125,4.6875,0.46734619140625,-0.58129882812500,0.54351806640625,0.38507080078125,moving
60.08,3,1,3,0,0.2500,2.3600,3.1100,7.2500,-2.8125,5.1250,0.46765136718750,-0.58068847656250,0.54388427734375,0.38507080078125,moving
60.08,3,1,3,0,0.1800,2.5200,3.2100,-0.0625,-8.8750,5.0000,0.46789550781250,-0.58013916015625,0.54376220703125,0.38574218750000,moving
60.09,3,1,3,0,0.0600,2.7500,3.0000,-7.2500,-11.2500,4.3125,0.46795654296875,-0.57983398437500,0.54327392578125,0.38684082031250,moving
60.11,3,1,3,0,0.4800,2.9300,2.0200,-12.4375,-15.0625,5.6250,0.46783447265625,-0.57958984375000,0.54254150390625,0.38842773437500,moving
60.12,3,1,3,0,0.8000,2.9100,1.1900,-13.8125,-18.9375,8.6875,0.46771240234375,-0.57910156250000,0.54174804687500,0.39038085937500,moving
60.13,3,1,3,0,1.0700,2.6800,0.2400,-16.1250,-19.8750,13.5000,0.46740722656250,-0.57843017578125,0.54107666015625,0.39276123046875,moving
60.14,3,1,3,0,0.9900,1.9100,-0.8000,-27.6250,-19.5625,18.4375,0.46630859375000,-0.57800292968750,0.54022216796875,0.39581298828125,moving
60.15,3,1,3,0,-0.5600,0.5900,-2.8900,-45.1875,-15.0000,21.6875,0.46392822265625,-0.57824707031250,0.53918457031250,0.39959716796875,moving
60.16,3,1,3,0,-1.6900,0.4800,-3.7500,-56.4375,-5.5000,23.6875,0.46051025390625,-0.57922363281250,0.53814697265625,0.40350341796875,moving
60.17,3,1,3,0,-1.6900,0.4800,-3.7500,-56.4375,-5.5000,23.6875,0.46051025390625,-0.57922363281250,0.53814697265625,0.40350341796875,moving
60.17,3,1,3,0,-2.9000,0.5200,-4.4500,-57.8750,5.2500,23.7500,0.45648193359375,-0.58062744140625,0.53753662109375,0.40686035156250,moving
60.17,3,1,3,0,-4.3200,-0.0200,-5.2700,-55.3750,21.5000,17.9375,0.45202636718750,-0.58270263671875,0.53735351562500,0.40911865234375,moving
60.18,3,1,3,0,-3.1200,-1.1500,-4.2000,-42.6875,32.5625,9.1250,0.44799804687500,-0.58514404296875,0.53759765625000,0.40979003906250,moving
60.20,3,1,3,0,-2.0300,-1.9900,-2.5100,-34.1875,47.9375,-3.4375,0.44409179687500,-0.58831787109375,0.53802490234375,0.40881347656250,moving
60.21,3,1,3,0,-0.1000,-2.1500,-0.9600,-41.0000,55.5000,-19.8750,0.44006347656250,-0.59283447265625,0.53771972656250,0.40710449218750,moving
60.22,3,1,3,0,1.9300,-1.5100,0.5800,-49.5625,37.6250,-25.8750,0.43664550781250,-0.59729003906250,0.53607177734375,0.40649414062500,moving
60.23,3,1,3,0,1.2400,-1.8700,0.9600,-45.8125,20.1875,-19.9375,0.43402099609375,-0.60064697265625,0.53417968750000,0.40686035156250,moving
60.24,3,1,3,0,0.3100,-2.4100,0.6500,-30.3125,25.7500,-11.3750,0.43164062500000,-0.60327148437500,0.53344726562500,0.40649414062500,moving
60.25,3,1,3,0,-0.0200,-2.1000,1.0400,-21.6250,23.9375,-4.8750,0.42950439453125,-0.60516357421875,0.53332519531250,0.40600585937500,moving
60.25,3,1,3,0,0.2400,-1.2400,2.0900,-16.3125,10.0625,-3.3750,0.42828369140625,-0.60626220703125,0.53295898437500,0.40612792968750,moving
60.26,3,1,3,0,0.4000,-1.0900,1.7200,-5.9375,-1.4375,-3.3125,0.42816162109375,-0.60656738281250,0.53253173828125,0.40637207031250,moving
60.27,3,1,3,0,1.3500,-1.0700,1.1700,0.3125,1.1250,-5.4375,0.42834472656250,-0.60687255859375,0.53228759765625,0.40606689453125,moving
60.29,3,1,3,0,1.7100,-0.6100,1.6900,-2.4375,13.7500,-7.1875,0.42779541015625,-0.60778808593750,0.53234863281250,0.40521240234375,moving
60.30,3,1,3,0,0.0400,0.6900,2.5000,-7.4375,21.1875,-4.1875,0.42657470703125,-0.60900878906250,0.53265380859375,0.40423583984375,moving
60.31,3,1,3,0,-0.8500,0.7500,2.2200,-7.0625,16.8125,-2.8750,0.42553710937500,-0.61004638671875,0.53283691406250,0.40356445312500,moving
60.32,3,1,3,0,-1.5800,0.8400,1.7600,-8.8750,1.5625,-4.8125,0.42510986328125,-0.61065673828125,0.53234863281250,0.40374755859375,moving
60.33,3,1,3,0,-1.7400,0.9100,0.8800,-16.0625,-11.0625,-7.7500,0.42504882812500,-0.61120605468750,0.53094482421875,0.40478515625000,moving
60.33,3,1,3,0,-0.4800,0.5600,0.0200,-27.6250,-10.3125,-8.1875,0.42437744140625,-0.61224365234375,0.52911376953125,0.40631103515625,moving
60.34,3,1,3,0,0.3800,-0.2200,-0.1100,-41.7500,-9.2500,-6.0000,0.42279052734375,-0.61370849609375,0.52697753906250,0.40850830078125,moving
60.36,3,1,3,0,1.4100,-0.8000,-0.5200,-48.2500,-10.6875,-4.6875,0.42083740234375,-0.61535644531250,0.52459716796875,0.41113281250000,moving
60.37,3,1,3,0,1.8700,-1.2200,-1.3200,-52.6875,-6.3125,-4.9375,0.41845703125000,-0.61724853515625,0.52221679687500,0.41369628906250,moving
60.38,3,1,3,0,1.6000,-2.0800,-2.6900,-56.3750,-2.5000,-6.7500,0.41583251953125,-0.61950683593750,0.51971435546875,0.41613769531250,moving
60.39,3,1,3,0,0.9000,-2.1500,-3.7500,-55.9375,5.6875,-8.3750,0.41284179687500,-0.62213134765625,0.51745605468750,0.41809082031250,moving
60.40,3,1,3,0,0.0600,-1.7400,-4.7100,-47.1875,23.2500,-9.6250,0.40954589843750,-0.62512207031250,0.51599121093750,0.41857910156250,moving
60.41,3,1,3,0,-0.6400,-1.5100,-3.8300,-26.8125,42.7500,-11.5625,0.40661621093750,-0.62817382812500,0.51593017578125,0.41705322265625,moving
60.42,3,1,3,0,-0.6400,-1.5100,-3.8300,-26.8125,42.7500,-11.5625,0.40661621093750,-0.62817382812500,0.51593017578125,0.41705322265625,moving
60.42,3,1,3,0,0.4200,0.1600,-4.3600,8.7500,64.5625,-7.4375,0.40441894531250,-0.63055419921875,0.51812744140625,0.41284179687500,moving
60.43,3,1,3,0,0.5100,-0.7400,-2.6100,39.8125,52.2500,-8.5000,0.40454101562500,-0.63140869140625,0.52093505859375,0.40783691406250,moving
60.44,3,1,3,0,0.7900,-1.5600,-1.1000,39.6250,50.7500,-12.8750,0.40484619140625,-0.63238525390625,0.52337646484375,0.40277099609375,moving
60.45,3,1,3,0,1.1700,-1.2100,0.9500,25.8125,40.1875,-15.6875,0.40502929687500,-0.63360595703125,0.52484130859375,0.39880371093750,moving
60.46,3,1,3,0,0.5800,-0.9800,2.5200,11.0625,24.6250,-16.1250,0.40502929687500,-0.63482666015625,0.52520751953125,0.39630126953125,moving
60.47,3,1,3,0,-0.4300,-0.3600,3.0800,7.0625,28.6250,-14.3125,0.40460205078125,-0.63623046875000,0.52569580078125,0.39385986328125,moving
60.48,3,1,3,0,-1.2000,-0.0700,3.2800,13.6875,37.3750,-16.2500,0.40423583984375,-0.63775634765625,0.52655029296875,0.39056396484375,moving
60.49,3,1,3,0,-1.6000,0.3200,3.9700,29.3750,21.8125,-22.8125,0.40563964843750,-0.63854980468750,0.52703857421875,0.38720703125000,moving
60.50,3,1,3,0,-1.3300,-0.0400,4.1000,45.0625,-4.1875,-26.4375,0.40924072265625,-0.63800048828125,0.52697753906250,0.38439941406250,moving
60.50,3,1,3,0,-1.8100,-0.2100,2.4400,36.0625,-20.6875,-21.8750,0.41296386718750,-0.63702392578125,0.52618408203125,0.38311767578125,moving
60.51,3,1,3,0,-2.6300,-0.1300,0.5800,18.6875,-27.0000,-16.5625,0.41577148437500,-0.63623046875000,0.52490234375000,0.38311767578125,moving
60.52,3,1,3,0,-3.5100,1.6500,1.6000,6.6250,-19.0000,-17.0000,0.41760253906250,-0.63610839843750,0.52349853515625,0.38330078125000,moving
60.54,3,1,3,0,-3.4800,2.0300,2.0400,-12.6250,1.4375,-13.2500,0.41729736328125,-0.63726806640625,0.52239990234375,0.38330078125000,moving
60.55,3,1,3,0,-3.0200,1.4800,1.6200,-14.2500,18.5625,-3.6875,0.41577148437500,-0.63854980468750,0.52233886718750,0.38275146484375,moving
60.56,3,1,3,0,-1.6700,1.6800,0.8000,-13.1875,2.0625,2.7500,0.41485595703125,-0.63897705078125,0.52215576171875,0.38336181640625,moving
60.57,3,1,3,0,1.8500,-0.6100,-0.9200,-18.9375,-12.2500,-3.1875,0.41448974609375,-0.63940429687500,0.52087402343750,0.38482666015625,moving
60.58,3,1,3,0,2.7800,-1.0100,-1.7400,-21.2500,-12.5000,-6.5000,0.41406250000000,-0.64001464843750,0.51934814453125,0.38623046875000,moving
60.58,3,1,3,0,3.2700,-0.9700,-2.9200,-23.2500,-9.3125,-5.4375,0.41339111328125,-0.64080810546875,0.51794433593750,0.38763427734375,moving
60.59,3,1,3,0,3.2000,-0.9000,-4.2300,-19.9375,-0.3125,0.1875,0.41229248046875,-0.64154052734375,0.51721191406250,0.38848876953125,moving
60.61,3,1,3,0,1.6100,-0.9700,-5.7900,-5.2500,32.1875,7.7500,0.41027832031250,-0.64245605468750,0.51861572265625,0.38720703125000,moving
60.62,3,1,3,0,0.7700,-0.4400,-6.9900,25.0000,84.2500,10.4375,0.40753173828125,-0.64392089843750,0.52307128906250,0.38171386718750,moving
60.63,3,1,3,0,0.4300,0.0000,-4.4500,59.6250,72.0000,16.3750,0.40704345703125,-0.64343261718750,0.52850341796875,0.37548828125000,moving
60.64,3,1,3,0,0.5000,0.0000,-1.5200,89.1875,58.3125,18.8125,0.40869140625000,-0.64129638671875,0.53454589843750,0.36877441406250,moving
60.65,3,1,3,0,1.1500,-0.2000,1.4500,88.4375,40.9375,17.4375,0.41113281250000,-0.63861083984375,0.53979492187500,0.36297607421875,moving
60.66,3,1,3,0,1.5000,-0.0700,2.8700,67.0000,56.1250,10.5625,0.41186523437500,-0.63745117187500,0.54455566406250,0.35699462890625,moving
60.67,3,1,3,0,1.7900,0.5600,3.0300,47.8125,47.0000,3.4375,0.41217041015625,-0.63702392578125,0.54791259765625,0.35223388671875,moving
60.67,3,1,3,0,1.7900,0.5600,3.0300,47.8125,47.0000,3.4375,0.41217041015625,-0.63702392578125,0.54791259765625,0.35223388671875,moving
60.68,3,1,3,0,1.7000,1.0900,3.3100,43.3750,26.6875,1.0625,0.41326904296875,-0.63623046875000,0.55023193359375,0.34869384765625,moving
60.68,3,1,3,0,0.8500,1.3500,2.6600,40.4375,4.1250,-3.5625,0.41546630859375,-0.63507080078125,0.55139160156250,0.34637451171875,moving
60.70,3,1,3,0,-0.3900,1.7300,3.9300,32.1250,-20.6875,-12.5625,0.41857910156250,-0.63391113281250,0.55096435546875,0.34552001953125,moving
60.71,3,1,3,0,-1.2000,1.4400,2.3500,16.3750,-18.1875,-25.7500,0.42114257812500,-0.63403320312500,0.54931640625000,0.34478759765625,moving
60.72,3,1,3,0,-1.0400,1.9800,1.6400,4.3750,-31.5000,-34.1875,0.42395019531250,-0.63452148437500,0.54644775390625,0.34509277343750,moving
60.73,3,1,3,0,-0.4700,1.8200,2.5400,-8.1875,-37.1250,-33.8750,0.42626953125000,-0.63531494140625,0.54290771484375,0.34625244140625,moving
60.74,3,1,3,0,-0.5900,1.5900,2.1700,-26.4375,-5.8750,-22.1875,0.42578125000000,-0.63720703125000,0.54064941406250,0.34698486328125,moving
60.75,3,1,3,0,-0.4100,1.1200,1.0700,-40.7500,45.0625,-6.4375,0.42156982421875,-0.64031982421875,0.54071044921875,0.34619140625000,moving
60.75,3,1,3,0,0.5800,0.6100,-0.4800,-53.6875,49.8125,11.5625,0.41583251953125,-0.64324951171875,0.54156494140625,0.34637451171875,moving
60.76,3,1,3,0,0.4000,-0.0900,-1.3300,-60.2500,29.4375,22.7500,0.41040039062500,-0.64526367187500,0.54211425781250,0.34838867187500,moving
60.77,3,1,3,0,0.7300,-0.0900,-2.6300,-58.0625,20.3125,17.8750,0.40557861328125,-0.64709472656250,0.54205322265625,0.35064697265625,moving
60.79,3,1,3,0,0.7600,-1.2500,-3.1600,-43.6875,33.8750,2.1875,0.40148925781250,-0.64953613281250,0.54205322265625,0.35083007812500,moving
60.80,3,1,3,0,-1.3500,-3.6100,-3.2800,-35.6250,64.9375,-13.5000,0.39678955078125,-0.65344238281250,0.54241943359375,0.34838867187500,moving
60.81,3,1,3,0,-3.7100,-4.6000,-6.4800,-34.7500,101.3750,-34.5625,0.39105224609375,-0.65930175781250,0.54290771484375,0.34301757812500,moving
60.82,3,1,3,0,-3.5600,-5.0900,-4.4900,-47.3125,90.1875,-55.8125,0.38568115234375,-0.66625976562500,0.54132080078125,0.33813476562500,moving
60.83,3,1,3,0,-0.2600,-2.6600,-2.3900,-43.4375,69.4375,-59.7500,0.38159179687500,-0.67254638671875,0.53887939453125,0.33416748046875,moving
60.83,3,1,3,0,-0.4200,-1.0300,-0.1300,3.5625,43.1250,-35.1875,0.38079833984375,-0.67535400390625,0.53833007812500,0.33026123046875,moving
60.84,3,1,3,0,-0.2400,-0.5000,3.0700,43.2500,17.5000,-4.7500,0.38269042968750,-0.67462158203125,0.53985595703125,0.32702636718750,moving
60.86,3,1,3,0,-0.4100,-1.0000,6.2900,61.4375,5.3125,17.9375,0.38555908203125,-0.67187500000000,0.54284667968750,0.32440185546875,moving
60.87,3,1,3,0,-0.1400,0.2600,3.1900,75.6875,-7.8750,37.8750,0.38928222656250,-0.66729736328125,0.54693603515625,0.32250976562500,moving
60.88,3,1,3,0,-0.5600,1.7400,4.9800,80.3125,-61.8125,49.6875,0.39550781250000,-0.66046142578125,0.54998779296875,0.32397460937500,moving
60.89,3,1,3,0,-1.3800,2.2200,2.5400,75.6250,-46.0625,52.2500,0.40057373046875,-0.65399169921875,0.55346679687500,0.32476806640625,moving
60.90,3,1,3,0,-2.3000,2.4500,2.2500,59.9375,-53.2500,42.7500,0.40533447265625,-0.64831542968750,0.55572509765625,0.32641601562500,moving
60.91,3,1,3,0,-2.8500,5.1600,4.0600,45.5625,-62.0625,27.1875,0.41015625000000,-0.64355468750000,0.55639648437500,0.32867431640625,moving
60.92,3,1,3,0,-2.3000,5.8100,3.3200,20.0625,-44.4375,12.8750,0.41308593750000,-0.64093017578125,0.55609130859375,0.33062744140625,moving
60.92,3,1,3,0,-1.8400,4.5900,1.5800,-1.0625,2.5000,6.0000,0.41271972656250,-0.64074707031250,0.55645751953125,0.33081054687500,moving
60.93,3,1,3,0,-0.9600,2.5300,0.4900,-16.1875,15.3125,6.8125,0.41088867187500,-0.64141845703125,0.55694580078125,0.33099365234375,moving
60.94,3,1,3,0,-0.9600,2.5300,0.4900,-16.1875,15.3125,6.8125,0.41088867187500,-0.64141845703125,0.55694580078125,0.33099365234375,moving
60.95,3,1,3,0,1.2100,0.9600,-0.3200,-24.2500,-6.0625,11.8750,0.40948486328125,-0.64154052734375,0.55664062500000,0.33294677734375,moving
60.96,3,1,3,0,1.3200,-0.1700,-2.0400,-35.1875,-18.8125,11.1875,0.40814208984375,-0.64166259765625,0.55560302734375,0.33612060546875,moving
60.97,3,1,3,0,1.6400,-1.7400,-3.6600,-44.6250,-26.9375,-1.4375,0.40698242187500,-0.64251708984375,0.55322265625000,0.33978271484375,moving
60.98,3,1,3,0,1.6900,-2.5600,-4.4400,-50.6250,-21.3750,-12.8750,0.40557861328125,-0.64428710937500,0.55023193359375,0.34295654296875,moving
60.99,3,1,3,0,0.3800,-5.5600,-8.7400,-36.0625,47.8125,-16.3750,0.40173339843750,-0.64776611328125,0.54992675781250,0.34143066406250,moving
61.00,3,1,3,0,-0.8900,-5.9000,-7.6200,-5.1250,34.8125,-15.8750,0.40020751953125,-0.64978027343750,0.55010986328125,0.33917236328125,moving
61.00,3,1,3,0,0.1300,-4.6400,-6.6900,-2.1875,44.3125,-24.5625,0.39868164062500,-0.65234375000000,0.55017089843750,0.33587646484375,moving
61.02,3,1,3,0,1.9000,-3.3900,-4.5700,2.4375,48.6250,-27.5625,0.39727783203125,-0.65496826171875,0.55035400390625,0.33203125000000,moving
61.03,3,1,3,0,4.8800,0.5800,3.2200,5.2500,37.0000,-16.0000,0.39630126953125,-0.65667724609375,0.55090332031250,0.32910156250000,moving
61.04,3,1,3,0,3.3900,0.6000,5.7100,18.8125,28.4375,1.3750,0.39593505859375,-0.65673828125000,0.55249023437500,0.32659912109375,moving
61.05,3,1,3,0,2.0800,0.3100,4.4600,51.2500,13.5625,17.0000,0.39776611328125,-0.65454101562500,0.55535888671875,0.32391357421875,moving
61.06,3,1,3,0,0.1400,1.0600,2.5400,61.8750,-6.3750,26.6875,0.40081787109375,-0.65093994140625,0.55841064453125,0.32220458984375,moving
61.07,3,1,3,0,-2.8200,1.0300,2.7600,50.5000,-41.5625,24.6875,0.40502929687500,-0.64678955078125,0.55975341796875,0.32293701171875,moving
61.08,3,1,3,0,-5.0800,2.3200,6.7200,19.0000,-105.4375,5.3750,0.41107177734375,-0.64282226562500,0.55688476562500,0.32812500000000,moving
61.08,3,1,3,0,-6.3700,2.8400,7.3700,-4.0000,-122.1875,-20.6250,0.41735839843750,-0.64044189453125,0.55120849609375,0.33441162109375,moving
61.09,3,1,3,0,0.0900,3.0000,3.9600,-6.8125,-150.1250,-34.3750,0.42517089843750,-0.63787841796875,0.54351806640625,0.34185791015625,moving
61.11,3,1,3,0,1.2700,3.1500,4.1200,12.0625,-141.1250,-11.6250,0.43286132812500,-0.63372802734375,0.53796386718750,0.34869384765625,moving
61.12,3,1,3,0,2.6100,3.0600,5.1500,13.3750,-78.7500,19.3750,0.43670654296875,-0.62988281250000,0.53643798828125,0.35314941406250,moving
61.13,3,1,3,0,3.8200,3.0500,3.9900,-2.6875,13.5625,43.2500,0.43463134765625,-0.62835693359375,0.53924560546875,0.35418701171875,moving
61.14,3,1,3,0,1.2300,1.1600,-4.2700,-47.4375,54.2500,49.6875,0.42791748046875,-0.62951660156250,0.54254150390625,0.35534667968750,moving
61.15,3,1,3,0,0.9400,-1.4500,-8.3700,-53.6250,53.0000,27.9375,0.42156982421875,-0.63177490234375,0.54437255859375,0.35601806640625,moving
61.16,3,1,3,0,1.1700,-1.1600,-5.6200,-61.6875,-51.6250,17.2500,0.42010498046875,-0.63159179687500,0.54150390625000,0.36242675781250,moving
61.17,3,1,3,0,-0.4600,-3.9900,5.2000,-102.4375,28.0625,-5.1875,0.41326904296875,-0.63647460937500,0.53900146484375,0.36553955078125,moving
61.17,3,1,3,0,-3.9500,-3.4600,-14.4600,-27.6250,137.8750,-51.0000,0.40686035156250,-0.64422607421875,0.54022216796875,0.35729980468750,moving
61.18,3,1,3,0,-1.0800,-2.1200,-11.7300,11.1250,-8.6250,-38.9375,0.40911865234375,-0.64538574218750,0.53802490234375,0.35589599609375,moving
61.20,3,1,3,0,1.7700,0.3900,-9.6000,22.0625,11.5000,-4.6875,0.40991210937500,-0.64514160156250,0.53887939453125,0.35400390625000,moving
61.20,3,1,3,0,1.7700,0.3900,-9.6000,22.0625,11.5000,-4.6875,0.40991210937500,-0.64514160156250,0.53887939453125,0.35400390625000,moving
61.21,3,1,3,0,1.6200,-0.6500,-4.1200,29.5000,17.3125,22.8125,0.41009521484375,-0.64355468750000,0.54168701171875,0.35247802734375,moving
61.22,3,1,3,0,2.5500,-0.8800,4.0900,25.8750,12.0625,39.4375,0.40972900390625,-0.64117431640625,0.54516601562500,0.35192871093750,moving
61.23,3,1,3,0,0.4600,0.0600,5.0800,39.1875,33.5000,47.1875,0.40887451171875,-0.63854980468750,0.55017089843750,0.34991455078125,moving
61.24,3,1,3,0,-0.8700,0.9100,3.9900,46.1250,45.3125,54.6875,0.40759277343750,-0.63562011718750,0.55621337890625,0.34710693359375,moving
61.25,3,1,3,0,-12.7500,2.9700,6.5200,23.5000,27.1875,45.9375,0.40612792968750,-0.63336181640625,0.56048583984375,0.34606933593750,moving
61.25,3,1,3,0,-12.4700,0.7200,6.1600,-39.9375,-76.5000,-40.3750,0.40887451171875,-0.63446044921875,0.55426025390625,0.35076904296875,moving
61.26,3,1,3,0,-4.3100,-0.1200,5.6300,-57.4375,-193.5625,-91.7500,0.41778564453125,-0.63488769531250,0.54046630859375,0.36096191406250,moving
61.28,3,1,3,0,1.3900,2.8000,-1.7100,8.7500,-206.0625,-34.1250,0.42901611328125,-0.62957763671875,0.53125000000000,0.37066650390625,moving
61.29,3,1,3,0,4.7400,2.2600,6.0300,37.1875,-156.5625,0.6875,0.43823242187500,-0.62298583984375,0.52655029296875,0.37750244140625,moving
61.30,3,1,3,0,3.3100,3.4000,4.8100,37.9375,24.5000,32.6875,0.43811035156250,-0.62084960937500,0.53051757812500,0.37573242187500,moving
61.31,3,1,3,0,3.1100,1.6200,2.9200,4.4375,109.2500,48.2500,0.43170166015625,-0.62194824218750,0.53741455078125,0.37145996093750,moving
61.32,3,1,3,0,3.3500,0.9300,0.7300,-54.5625,113.7500,48.4375,0.42181396484375,-0.62536621093750,0.54254150390625,0.36962890625000,moving
61.33,3,1,3,0,2.2300,-0.3400,-4.0300,-56.3125,40.0625,21.8125,0.41613769531250,-0.62768554687500,0.54333496093750,0.37091064453125,moving
61.34,3,1,3,0,3.1500,-0.9700,-1.0400,-64.6250,-81.0000,2.1875,0.41638183593750,-0.62725830078125,0.53839111328125,0.37854003906250,moving
61.34,3,1,3,0,1.6300,-3.4100,-0.3900,-87.9375,-27.9375,-18.4375,0.41345214843750,-0.63037109375000,0.53344726562500,0.38348388671875,moving
61.36,3,1,3,0,0.1800,-2.4200,-2.4200,-85.5000,96.5625,-40.0625,0.40557861328125,-0.63848876953125,0.53186035156250,0.38073730468750,moving
61.37,3,1,3,0,1.2000,0.3900,-9.1400,-41.5625,18.6875,-31.2500,0.40344238281250,-0.64202880859375,0.52935791015625,0.38049316406250,moving
61.38,3,1,3,0,1.0900,1.3600,-7.9900,1.3750,-6.2500,-4.0625,0.40393066406250,-0.64196777343750,0.52899169921875,0.38061523437500,moving
61.39,3,1,3,0,1.6500,0.5500,-4.8700,25.0000,16.5625,9.3125,0.40423583984375,-0.64123535156250,0.53094482421875,0.37890625000000,moving
61.40,3,1,3,0,2.5300,-1.2400,-2.1900,33.0000,15.4375,13.6875,0.40490722656250,-0.63989257812500,0.53332519531250,0.37695312500000,moving
61.41,3,1,3,0,2.9100,-1.2900,2.5900,36.8750,29.5625,22.5625,0.40484619140625,-0.63854980468750,0.53686523437500,0.37438964843750,moving
61.42,3,1,3,0,2.5800,-0.7400,3.0900,31.0000,42.5000,24.1250,0.40380859375000,-0.63769531250000,0.54071044921875,0.37139892578125,moving
61.42,3,1,3,0,2.4200,0.0600,3.3800,21.9375,43.5000,26.8125,0.40209960937500,-0.63708496093750,0.54443359375000,0.36889648437500,moving
61.43,3,1,3,0,-0.9300,1.8200,3.3100,13.3125,42.7500,25.1250,0.39996337890625,-0.63677978515625,0.54772949218750,0.36676025390625,moving
61.45,3,1,3,0,-3.2500,2.0300,3.7100,5.0625,5.0625,1.3750,0.39996337890625,-0.63665771484375,0.54815673828125,0.36627197265625,moving
61.45,3,1,3,0,-3.2500,2.0300,3.7100,5.0625,5.0625,1.3750,0.39996337890625,-0.63665771484375,0.54815673828125,0.36627197265625,moving
61.46,3,1,3,0,-3.4600,1.0600,5.5900,14.2500,-30.2500,-27.4375,0.40307617187500,-0.63653564453125,0.54602050781250,0.36633300781250,moving
61.47,3,1,3,0,-4.6200,0.7900,3.0900,8.9375,-50.6250,-33.8750,0.40704345703125,-0.63616943359375,0.54266357421875,0.36749267578125,moving
61.48,3,1,3,0,-3.2400,-1.7500,0.5500,-2.8125,-89.7500,-46.0625,0.41259765625000,-0.63555908203125,0.53680419921875,0.37097167968750,moving
61.49,3,1,3,0,-1.6200,-0.6700,-1.2400,-17.3125,-77.1875,-34.5000,0.41638183593750,-0.63531494140625,0.53155517578125,0.37481689453125,moving
61.50,3,1,3,0,-1.1100,-0.3600,0.1600,-26.3125,-19.2500,-8.0000,0.41607666015625,-0.63598632812500,0.52954101562500,0.37683105468750,moving
61.50,3,1,3,0,-1.2200,-1.1500,2.8300,-25.9375,47.8125,19.1875,0.41180419921875,-0.63757324218750,0.53143310546875,0.37609863281250,moving
61.52,3,1,3,0,-0.3500,-1.5300,-2.7600,-27.6250,83.7500,32.0000,0.40533447265625,-0.63983154296875,0.53533935546875,0.37384033203125,moving
61.53,3,1,3,0,0.0000,-0.9800,-5.0200,-25.3125,46.0625,17.6250,0.40118408203125,-0.64135742187500,0.53710937500000,0.37310791015625,moving
61.54,3,1,3,0,2.9800,-2.5500,-0.5600,-28.5625,-8.8750,-16.5000,0.40057373046875,-0.64288330078125,0.53491210937500,0.37432861328125,moving
61.55,3,1,3,0,2.1500,-4.0500,-6.1400,-19.8750,21.3750,-31.7500,0.39947509765625,-0.64575195312500,0.53326416015625,0.37298583984375,moving
61.56,3,1,3,0,0.4400,-2.9900,-6.6300,-17.7500,35.7500,-32.3750,0.39788818359375,-0.64898681640625,0.53204345703125,0.37066650390625,moving
61.57,3,1,3,0,1.4100,-2.2800,-5.7200,-27.6250,50.0000,-37.0000,0.39520263671875,-0.65332031250000,0.53082275390625,0.36779785156250,moving
61.58,3,1,3,0,1.9700,-0.9900,-4.4600,-13.6875,41.5625,-27.1875,0.39331054687500,-0.65637207031250,0.53021240234375,0.36511230468750,moving
61.58,3,1,3,0,0.9500,0.0100,-3.7100,33.1250,46.0625,-9.1875,0.39337158203125,-0.65710449218750,0.53234863281250,0.36059570312500,moving
61.59,3,1,3,0,1.2900,-0.6800,-0.0700,70.5625,32.3750,2.3125,0.39587402343750,-0.65563964843750,0.53576660156250,0.35552978515625,moving
61.61,3,1,3,0,1.9000,-0.7500,1.9000,86.2500,36.8750,11.0000,0.39868164062500,-0.65325927734375,0.54034423828125,0.34973144531250,moving
61.62,3,1,3,0,2.1100,-0.3100,2.6800,95.6875,47.2500,14.1875,0.40148925781250,-0.65069580078125,0.54571533203125,0.34295654296875,moving
61.63,3,1,3,0,1.9300,0.0300,3.3900,100.2500,37.6250,11.3750,0.40502929687500,-0.64776611328125,0.55065917968750,0.33642578125000,moving
61.64,3,1,3,0,0.8000,1.9400,4.0600,89.1875,27.3125,0.3125,0.40869140625000,-0.64538574218750,0.55419921875000,0.33056640625000,moving
61.65,3,1,3,0,-0.5500,2.0400,3.2600,61.9375,-10.3125,-24.6250,0.41339111328125,-0.64404296875000,0.55419921875000,0.32727050781250,moving
61.66,3,1,3,0,-2.1300,2.2400,5.1600,38.0625,-52.6875,-50.7500,0.41955566406250,-0.64361572265625,0.55053710937500,0.32653808593750,moving
61.67,3,1,3,0,-4.9900,2.0100,5.7000,20.2500,-151.3750,-72.1875,0.42999267578125,-0.64196777343750,0.54144287109375,0.33135986328125,moving
61.67,3,1,3,0,0.7600,2.0600,3.3000,21.5000,-258.6875,-64.5625,0.44512939453125,-0.63659667968750,0.52862548828125,0.34234619140625,moving
61.68,3,1,3,0,0.7500,6.9100,4.8200,44.0000,-252.9375,-33.7500,0.46014404296875,-0.62872314453125,0.51812744140625,0.35296630859375,moving
61.70,3,1,3,0,1.3200,2.1700,7.3500,30.9375,-89.8750,3.0000,0.46582031250000,-0.62451171875000,0.51556396484375,0.35656738281250,moving
61.71,3,1,3,0,2.3900,5.6700,4.4700,27.3750,105.0625,57.6875,0.46075439453125,-0.62402343750000,0.52380371093750,0.35198974609375,moving
61.71,3,1,3,0,2.3900,5.6700,4.4700,27.3750,105.0625,57.6875,0.46075439453125,-0.62402343750000,0.52380371093750,0.35198974609375,moving
61.72,3,1,3,0,2.4100,3.1900,2.2200,-1.5000,217.5000,83.1250,0.44812011718750,-0.62683105468750,0.53692626953125,0.34350585937500,moving
61.73,3,1,3,0,-0.3400,3.3800,-3.0200,-56.9375,241.3125,91.9375,0.43084716796875,-0.63183593750000,0.54956054687500,0.33648681640625,moving
61.74,3,1,3,0,-3.0300,2.2700,-11.8900,-62.6875,121.3750,44.3750,0.42022705078125,-0.63555908203125,0.55468750000000,0.33447265625000,moving
61.75,3,1,3,0,-1.3400,0.4500,-5.4700,-107.7500,-46.5000,-6.2500,0.41662597656250,-0.63836669921875,0.54943847656250,0.34204101562500,moving
61.75,3,1,3,0,-2.8500,4.6600,-11.5500,-159.4375,88.1250,-66.2500,0.40545654296875,-0.64990234375000,0.54412841796875,0.34228515625000,moving
61.76,3,1,3,0,0.3000,3.7200,-11.9200,-146.9375,85.6875,-98.4375,0.39593505859375,-0.66223144531250,0.53710937500000,0.34088134765625,moving
61.78,3,1,3,0,3.4100,7.2100,-8.2800,-122.3125,-14.6875,-46.0000,0.39086914062500,-0.66809082031250,0.53027343750000,0.34588623046875,moving
61.79,3,1,3,0,-0.3100,4.8500,-2.5900,-58.0000,19.3750,-19.6250,0.38714599609375,-0.67156982421875,0.52807617187500,0.34674072265625,moving
61.80,3,1,3,0,-3.2500,2.4900,1.0900,-23.1250,36.3125,-15.2500,0.38452148437500,-0.67413330078125,0.52770996093750,0.34521484375000,moving
61.81,3,1,3,0,-4.2000,1.3000,2.8000,-18.5000,33.5625,-30.3750,0.38281250000000,-0.67718505859375,0.52655029296875,0.34307861328125,moving
61.82,3,1,3,0,-4.1400,1.1700,2.8100,-31.9375,-8.0000,-44.9375,0.38256835937500,-0.68005371093750,0.52264404296875,0.34350585937500,moving
61.83,3,1,3,0,-0.1100,0.1900,3.4700,-28.1875,-72.9375,-59.5000,0.38598632812500,-0.68145751953125,0.51586914062500,0.34716796875000,moving
61.83,3,1,3,0,1.6100,-1.1700,3.5600,-23.0000,-145.6250,-61.5625,0.39294433593750,-0.68054199218750,0.50653076171875,0.35473632812500,moving
61.84,3,1,3,0,4.2300,-2.4900,2.5500,-33.0625,-151.5625,-29.5000,0.39855957031250,-0.67822265625000,0.49853515625000,0.36419677734375,moving
61.86,3,1,3,0,5.4000,-6.1400,-2.9000,-39.8125,-124.5000,3.2500,0.40142822265625,-0.67547607421875,0.49316406250000,0.37335205078125,moving
61.87,3,1,3,0,5.9100,-5.7000,-3.0300,-34.6875,-44.0000,65.7500,0.39910888671875,-0.67236328125000,0.49432373046875,0.37976074218750,moving
61.88,3,1,3,0,5.0400,-5.7200,-5.9500,-16.3125,97.8750,109.3750,0.39025878906250,-0.67144775390625,0.50360107421875,0.37854003906250,moving
61.89,3,1,3,0,4.7600,-7.0500,-1.3000,-21.6875,174.6875,119.8750,0.37725830078125,-0.67254638671875,0.51574707031250,0.37322998046875,moving
61.90,3,1,3,0,-3.0000,-6.6500,-3.9400,-8.0625,189.6250,110.6875,0.36456298828125,-0.67388916015625,0.52813720703125,0.36608886718750,moving
61.91,3,1,3,0,-2.0600,-7.3800,0.5600,-29.6250,44.8125,72.6875,0.35839843750000,-0.67291259765625,0.53289794921875,0.36706542968750,moving
61.92,3,1,3,0,-1.2500,-10.2400,2.7800,-53.6250,4.9375,26.6875,0.35418701171875,-0.67352294921875,0.53289794921875,0.37011718750000,moving
61.93,3,1,3,0,0.0700,-10.3100,2.0500,-31.9375,-8.0625,17.0000,0.35211181640625,-0.67346191406250,0.53259277343750,0.37255859375000,moving
61.94,3,1,3,0,-3.1600,-9.0000,0.0700,-6.0000,-17.0000,9.0000,0.35229492187500,-0.67266845703125,0.53240966796875,0.37408447265625,moving
61.95,3,1,3,0,-4.8700,-4.9700,-1.2100,-27.0625,-29.6250,-29.6875,0.35302734375000,-0.67395019531250,0.52886962890625,0.37615966796875,moving
61.96,3,1,3,0,-4.5100,-2.7300,2.5700,-17.3750,-9.3750,-50.4375,0.35412597656250,-0.67651367187500,0.52502441406250,0.37591552734375,moving
61.97,3,1,3,0,-1.5900,1.6000,0.0700,25.3750,45.4375,-20.5000,0.35418701171875,-0.67816162109375,0.52600097656250,0.37139892578125,moving
61.97,3,1,3,0,-1.5900,1.6000,0.0700,25.3750,45.4375,-20.5000,0.35418701171875,-0.67816162109375,0.52600097656250,0.37139892578125,moving
61.98,3,1,3,0,-1.7700,3.6900,2.4000,81.5000,15.5625,5.6250,0.35815429687500,-0.67584228515625,0.52947998046875,0.36688232421875,moving
61.99,3,1,3,0,-0.9000,1.9800,1.8600,130.8750,-2.5000,12.3125,0.36560058593750,-0.67108154296875,0.53424072265625,0.36132812500000,moving
62.00,3,1,3,0,-0.3400,0.9600,0.4000,152.7500,-24.6875,1.9375,0.37561035156250,-0.66528320312500,0.53833007812500,0.35565185546875,moving
62.00,3,1,3,0,-0.9300,0.7400,0.5300,127.6250,-52.6875,-24.7500,0.38623046875000,-0.66064453125000,0.53906250000000,0.35186767578125,moving
62.02,3,1,3,0,-4.5300,0.7400,2.6900,62.7500,-50.9375,-54.1875,0.39392089843750,-0.65948486328125,0.53613281250000,0.35003662109375,moving
62.03,3,1,3,0,-5.7600,1.2300,4.2700,11.3750,-63.6875,-90.1875,0.40032958984375,-0.66131591796875,0.52905273437500,0.35003662109375,moving
62.04,3,1,3,0,-5.5100,2.3800,4.0200,-23.4375,-75.6875,-116.0625,0.40600585937500,-0.66516113281250,0.51892089843750,0.35137939453125,moving
62.05,3,1,3,0,-0.8100,1.0900,2.6700,-31.5000,-100.6250,-128.0625,0.41259765625000,-0.66888427734375,0.50689697265625,0.35406494140625,moving
62.06,3,1,3,0,0.8000,0.9100,1.3600,-14.0625,-74.1875,-108.7500,0.41845703125000,-0.67187500000000,0.49743652343750,0.35510253906250,moving
62.07,3,1,3,0,0.6600,1.6300,0.1000,5.4375,-41.6250,-73.1875,0.42285156250000,-0.67352294921875,0.49176025390625,0.35461425781250,moving
62.08,3,1,3,0,0.1700,1.7100,-2.6800,28.1875,-27.5000,-27.9375,0.42657470703125,-0.67285156250000,0.48992919921875,0.35394287109375,moving
62.08,3,1,3,0,0.8900,-0.3300,-2.9900,45.9375,-24.5625,17.8750,0.42980957031250,-0.66961669921875,0.49145507812500,0.35412597656250,moving
62.09,3,1,3,0,0.2400,0.7600,-6.8800,68.8125,32.8750,48.5625,0.43090820312500,-0.66589355468750,0.49761962890625,0.35107421875000,moving
62.11,3,1,3,0,-0.0200,-0.3300,-7.9400,93.7500,33.0625,58.7500,0.43310546875000,-0.66082763671875,0.50512695312500,0.34722900390625,moving
62.12,3,1,3,0,-0.8900,0.2600,-5.9000,76.8750,-16.4375,43.2500,0.43695068359375,-0.65551757812500,0.50933837890625,0.34643554687500,moving
62.13,3,1,3,0,0.7500,-0.3800,-1.6400,42.0000,-5.9375,20.0625,0.43896484375000,-0.65283203125000,0.51147460937500,0.34564208984375,moving
62.14,3,1,3,0,1.8400,0.9500,-2.2000,13.3125,24.1875,19.9375,0.43804931640625,-0.65216064453125,0.51397705078125,0.34442138671875,moving
62.15,3,1,3,0,2.3400,1.7400,-2.4900,1.8750,38.2500,29.0000,0.43560791015625,-0.65191650390625,0.51715087890625,0.34326171875000,moving
62.16,3,1,3,0,2.3600,2.6000,-1.6100,3.3750,37.3750,43.6875,0.43280029296875,-0.65093994140625,0.52111816406250,0.34265136718750,moving
62.17,3,1,3,0,0.7200,2.9200,2.5100,19.6875,19.0625,54.5000,0.43139648437500,-0.64831542968750,0.52551269531250,0.34271240234375,moving
62.17,3,1,3,0,0.1000,2.8700,1.3400,42.7500,30.7500,63.4375,0.43048095703125,-0.64471435546875,0.53155517578125,0.34136962890625,moving
62.18,3,1,3,0,0.4800,2.9400,1.3100,47.3125,-2.6875,58.6250,0.43151855468750,-0.64007568359375,0.53613281250000,0.34149169921875,moving
62.20,3,1,3,0,0.7000,1.7900,2.1100,34.3750,-35.7500,47.4375,0.43365478515625,-0.63549804687500,0.53845214843750,0.34368896484375,moving
62.21,3,1,3,0,0.6300,2.4500,3.3600,16.2500,-52.4375,40.6875,0.43579101562500,-0.63140869140625,0.53918457031250,0.34735107421875,moving
62.22,3,1,3,0,1.6500,2.8200,3.3100,2.3125,-55.6875,37.6250,0.43737792968750,-0.62786865234375,0.53924560546875,0.35174560546875,moving
62.23,3,1,3,0,1.6800,3.3100,2.8700,-3.8125,-41.5625,32.3125,0.43817138671875,-0.62518310546875,0.53930664062500,0.35540771484375,moving
62.24,3,1,3,0,1.6800,3.3100,2.8700,-3.8125,-41.5625,32.3125,0.43817138671875,-0.62518310546875,0.53930664062500,0.35540771484375,moving
62.24,3,1,3,0,1.3400,2.7900,0.2900,-8.5625,-31.0000,29.4375,0.43823242187500,-0.62316894531250,0.53942871093750,0.35864257812500,moving
62.25,3,1,3,0,1.0000,1.8600,-0.6300,-14.1250,-33.3750,28.1250,0.43811035156250,-0.62133789062500,0.53924560546875,0.36218261718750,stop
62.25,3,1,3,0,0.0900,1.1100,-1.9700,-18.6875,-31.1875,27.1250,0.43768310546875,-0.61975097656250,0.53894042968750,0.36584472656250,stop
62.26,3,1,3,0,-0.7700,0.1800,-3.3900,-23.7500,-15.0000,23.0625,0.43640136718750,-0.61907958984375,0.53887939453125,0.36865234375000,stop
62.28,3,1,3,0,-2.4300,-2.2100,-0.6400,-26.6875,16.0625,11.2500,0.43377685546875,-0.62011718750000,0.53924560546875,0.36944580078125,stop
62.29,3,1,3,0,-2.5700,-1.8900,-7.4500,-18.0000,81.8750,-11.6875,0.42932128906250,-0.62396240234375,0.54113769531250,0.36541748046875,stop
62.30,3,1,3,0,-0.7200,-2.5200,-5.2000,-9.5000,40.0625,-20.0625,0.42755126953125,-0.62652587890625,0.54125976562500,0.36291503906250,stop
62.31,3,1,3,0,0.5000,-2.5300,-2.5900,-24.4375,23.1875,-28.2500,0.42596435546875,-0.62951660156250,0.53979492187500,0.36175537109375,stop
62.32,3,1,3,0,0.5900,-3.6300,1.1500,-46.5625,14.3750,-39.0000,0.42395019531250,-0.63354492187500,0.53668212890625,0.36169433593750,stop
62.33,3,1,3,0,0.2200,-4.0800,2.3000,-63.6250,13.8750,-46.4375,0.42120361328125,-0.63848876953125,0.53265380859375,0.36218261718750,stop
62.33,3,1,3,0,-0.1000,-3.4900,1.9900,-59.1250,16.0000,-45.8125,0.41864013671875,-0.64331054687500,0.52880859375000,0.36230468750000,stop
62.34,3,1,3,0,-0.1300,-3.2000,1.0700,-52.0000,-15.0000,-42.3125,0.41772460937500,-0.64666748046875,0.52423095703125,0.36401367187500,stop
62.36,3,1,3,0,0.1800,-2.1100,4.3100,-38.6875,-31.4375,-33.4375,0.41802978515625,-0.64862060546875,0.51995849609375,0.36633300781250,stop
62.37,3,1,3,0,0.3600,-0.6500,4.2900,-12.3750,-16.5000,-15.0000,0.41857910156250,-0.64923095703125,0.51812744140625,0.36724853515625,stop
62.38,3,1,3,0,1.4000,0.0800,4.8000,5.6875,-31.3750,5.9375,0.42010498046875,-0.64776611328125,0.51745605468750,0.36901855468750,stop
62.39,3,1,3,0,1.3900,1.5100,4.2900,24.8750,-43.6875,26.0625,0.42266845703125,-0.64422607421875,0.51812744140625,0.37127685546875,stop
62.40,3,1,3,0,3.3000,2.5400,3.0100,40.5000,-43.8125,40.1875,0.42559814453125,-0.63946533203125,0.52008056640625,0.37341308593750,stop
62.41,3,1,3,0,3.2100,2.2300,1.3400,39.1875,-43.3750,48.6250,0.42816162109375,-0.63439941406250,0.52246093750000,0.37585449218750,stop
62.42,3,1,3,0,1.8600,1.3700,-1.3500,21.6875,-44.5625,53.6875,0.42962646484375,-0.62963867187500,0.52447509765625,0.37927246093750,stop
62.42,3,1,3,0,0.1900,0.7400,-3.1900,-1.5000,-56.9375,61.8750,0.43011474609375,-0.62500000000000,0.52563476562500,0.38482666015625,stop
62.44,3,1,3,0,-4.2100,-0.4700,-4.5000,-20.3125,-37.3125,64.6250,0.42852783203125,-0.62152099609375,0.52709960937500,0.39019775390625,stop
62.45,3,1,3,0,-7.0400,-0.7900,-0.3300,-23.5000,43.8750,44.7500,0.42370605468750,-0.62182617187500,0.53033447265625,0.39056396484375,stop
62.46,3,1,3,0,-9.0200,0.0300,-9.8700,17.8750,66.3125,34.2500,0.42047119140625,-0.62182617187500,0.53521728515625,0.38739013671875,stop
62.47,3,1,3,0,-4.5700,-3.6800,-4.6300,47.9375,13.0625,23.3125,0.42163085937500,-0.61944580078125,0.53857421875000,0.38531494140625,stop
62.48,3,1,3,0,-0.2400,-1.2600,0.6400,40.0625,-26.9375,22.3750,0.42431640625000,-0.61596679687500,0.54016113281250,0.38568115234375,stop
62.49,3,1,3,0,1.5600,-2.5300,5.0300,3.5000,-26.0000,-3.7500,0.42584228515625,-0.61517333984375,0.53912353515625,0.38677978515625,stop
62.50,3,1,3,0,3.1100,-1.4200,5.8200,-25.4375,14.8750,-12.4375,0.42419433593750,-0.61718750000000,0.53814697265625,0.38665771484375,stop
62.50,3,1,3,0,3.1100,-1.4200,5.8200,-25.4375,14.8750,-12.4375,0.42419433593750,-0.61718750000000,0.53814697265625,0.38665771484375,stop
62.50,3,1,3,0,1.1900,-0.0400,3.2800,-30.8750,13.4375,-14.5625,0.42242431640625,-0.61950683593750,0.53680419921875,0.38684082031250,stop
62.52,3,1,3,0,1.2700,0.3500,3.5000,-17.4375,-16.1875,-12.1875,0.42266845703125,-0.62017822265625,0.53491210937500,0.38812255859375,stop
62.53,3,1,3,0,1.8100,0.6400,3.0800,1.7500,-31.0000,-4.4375,0.42437744140625,-0.61926269531250,0.53363037109375,0.38952636718750,stop
62.54,3,1,3,0,2.3500,0.7800,2.9100,15.8125,-43.0000,7.5000,0.42694091796875,-0.61682128906250,0.53295898437500,0.39141845703125,stop
62.55,3,1,3,0,2.0000,1.1000,0.7100,21.2500,-33.3750,17.7500,0.42907714843750,-0.61407470703125,0.53338623046875,0.39288330078125,stop
62.56,3,1,3,0,1.4100,0.6300,0.1100,24.3125,-24.3125,25.3750,0.43060302734375,-0.61114501953125,0.53466796875000,0.39398193359375,stop
62.57,3,1,3,0,0.2600,0.7000,-0.0100,16.4375,-14.3125,28.0625,0.43121337890625,-0.60870361328125,0.53613281250000,0.39501953125000,stop
62.58,3,1,3,0,-0.2300,0.4400,-0.6300,19.6250,-9.8750,23.8125,0.43194580078125,-0.60650634765625,0.53771972656250,0.39550781250000,stop
62.58,3,1,3,0,0.3500,-0.6500,-0.6300,25.9375,-20.4375,21.3125,0.43353271484375,-0.60382080078125,0.53894042968750,0.39617919921875,stop
62.59,3,1,3,0,0.6600,-1.2200,-1.0100,24.4375,-18.9375,18.5000,0.43505859375000,-0.60137939453125,0.54003906250000,0.39672851562500,stop
62.61,3,1,3,0,0.6200,-1.7100,-1.2400,16.0000,-10.0625,14.5625,0.43591308593750,-0.59973144531250,0.54101562500000,0.39709472656250,stop
62.62,3,1,3,0,0.4900,-2.0000,-0.9500,5.8750,-3.6250,10.3750,0.43603515625000,-0.59887695312500,0.54156494140625,0.39739990234375,stop
62.63,3,1,3,0,-0.0400,-1.3700,-0.0400,1.5000,-7.0625,6.5625,0.43621826171875,-0.59826660156250,0.54168701171875,0.39794921875000,stop
62.64,3,1,3,0,-0.5000,-0.9000,0.3300,1.5000,-7.0625,6.5625,0.43640136718750,-0.59765625000000,0.54180908203125,0.39843750000000,stop
62.65,3,1,3,0,-0.5700,-0.7100,0.3500,5.5625,-12.3750,6.1250,0.43707275390625,-0.59674072265625,0.54187011718750,0.39910888671875,stop
62.66,3,1,3,0,0.3200,0.3100,0.0000,15.6250,-15.0625,7.8750,0.43835449218750,-0.59521484375000,0.54223632812500,0.39941406250000,stop
62.67,3,1,3,0,0.4100,1.1500,0.0900,33.0000,-21.3750,15.1875,0.44055175781250,-0.59246826171875,0.54333496093750,0.39953613281250,stop
62.67,3,1,3,0,0.3800,1.6700,-0.0200,33.0000,-21.3750,15.1875,0.44274902343750,-0.58978271484375,0.54443359375000,0.39965820312500,stop
62.69,3,1,3,0,0.3500,1.9500,-0.2700,30.8125,-22.3750,16.3750,0.44482421875000,-0.58703613281250,0.54547119140625,0.39996337890625,stop
62.70,3,1,3,0,0.0800,1.7200,-0.6700,23.8125,-21.0000,15.6250,0.44653320312500,-0.58459472656250,0.54632568359375,0.40051269531250,stop
62.71,3,1,3,0,0.1600,1.2500,-0.7100,16.6250,-18.4375,11.4375,0.44781494140625,-0.58276367187500,0.54675292968750,0.40112304687500,stop
62.72,3,1,3,0,0.1600,0.6200,-0.5000,-1.0625,-0.5625,-0.4375,0.44781494140625,-0.58276367187500,0.54669189453125,0.40118408203125,stop
62.73,3,1,3,0,0.0100,0.1700,-0.0900,-1.0625,-0.5625,-0.4375,0.44781494140625,-0.58282470703125,0.54663085937500,0.40130615234375,stop
62.74,3,1,3,0,-0.3500,-0.3900,0.7500,-9.2500,7.9375,-4.8750,0.44714355468750,-0.58367919921875,0.54638671875000,0.40112304687500,stop
62.75,3,1,3,0,-0.4200,-0.5500,1.1100,-10.6875,10.4375,-6.9375,0.44628906250000,-0.58477783203125,0.54602050781250,0.40081787109375,stop
62.75,3,1,3,0,-0.4800,-0.5600,1.0900,-6.8750,7.1250,-6.6875,0.44586181640625,-0.58563232421875,0.54571533203125,0.40051269531250,stop
62.76,3,1,3,0,-0.5300,-0.4300,0.8700,0.0000,1.3125,-4.1250,0.44592285156250,-0.58587646484375,0.54553222656250,0.40032958984375,stop
62.77,3,1,3,0,-0.5300,-0.4300,0.8700,0.0000,1.3125,-4.1250,0.44592285156250,-0.58587646484375,0.54553222656250,0.40032958984375,stop
62.78,3,1,3,0,-0.1500,-0.0200,0.2300,7.1250,-3.8750,-0.0625,0.44653320312500,-0.58544921875000,0.54565429687500,0.40014648437500,stop
62.79,3,1,3,0,0.1600,0.0600,0.0300,11.2500,-8.3750,3.0000,0.44738769531250,-0.58459472656250,0.54589843750000,0.40014648437500,stop
62.80,3,1,3,0,0.3100,0.1300,-0.1600,12.7500,-12.0625,4.9375,0.44842529296875,-0.58343505859375,0.54608154296875,0.40039062500000,stop
62.81,3,1,3,0,0.2400,0.1700,-0.3300,11.0625,-12.1875,5.6875,0.44940185546875,-0.58227539062500,0.54626464843750,0.40069580078125,stop
62.82,3,1,3,0,-0.0400,0.1200,-0.2600,7.7500,-11.0625,5.0000,0.45013427734375,-0.58135986328125,0.54638671875000,0.40106201171875,stop
62.83,3,1,3,0,-0.0600,0.0700,-0.1300,3.9375,-10.0000,3.2500,0.45068359375000,-0.58068847656250,0.54626464843750,0.40155029296875,stop
62.84,3,1,3,0,-0.0400,0.0200,0.0600,1.3750,-10.0000,1.2500,0.45123291015625,-0.58020019531250,0.54602050781250,0.40203857421875,stop
62.84,3,1,3,0,-0.1400,-0.0100,0.1500,1.3750,-10.6875,0.3125,0.45178222656250,-0.57977294921875,0.54559326171875,0.40252685546875,stop
62.86,3,1,3,0,-0.1300,0.0000,0.1100,2.6250,-11.8750,0.1875,0.45251464843750,-0.57928466796875,0.54522705078125,0.40295410156250,stop
62.87,3,1,3,0,-0.0800,0.0400,-0.0800,3.5000,-13.3125,0.0000,0.45330810546875,-0.57867431640625,0.54486083984375,0.40350341796875,stop
62.88,3,1,3,0,0.0500,0.0500,-0.2500,4.1875,-13.6875,-0.5000,0.45422363281250,-0.57800292968750,0.54443359375000,0.40399169921875,stop
62.89,3,1,3,0,0.3200,0.2200,-0.6800,4.3125,-13.5000,-0.9375,0.45507812500000,-0.57739257812500,0.54400634765625,0.40441894531250,stop
62.90,3,1,3,0,0.4100,0.3100,-0.7000,4.2500,-12.3125,-0.8750,0.45593261718750,-0.57684326171875,0.54364013671875,0.40478515625000,stop
62.91,3,1,3,0,0.4600,0.4000,-0.7100,4.3125,-10.3750,-0.6875,0.45666503906250,-0.57635498046875,0.54333496093750,0.40509033203125,stop
62.92,3,1,3,0,0.5500,0.3900,-0.6400,3.8750,-7.8750,-0.2500,0.45721435546875,-0.57592773437500,0.54315185546875,0.40527343750000,stop
62.92,3,1,3,0,0.5200,0.2300,-0.5200,1.8750,-5.7500,-0.1875,0.45764160156250,-0.57562255859375,0.54296875000000,0.40551757812500,stop
62.94,3,1,3,0,0.5300,0.1000,-0.3600,-1.1875,-3.1875,-0.6250,0.45770263671875,-0.57556152343750,0.54278564453125,0.40570068359375,stop
62.95,3,1,3,0,0.4200,0.0300,-0.2000,-3.7500,-1.6875,-1.1250,0.45764160156250,-0.57574462890625,0.54248046875000,0.40588378906250,stop
62.96,3,1,3,0,0.2500,-0.0600,-0.0500,-4.6250,-0.6875,-0.8125,0.45751953125000,-0.57592773437500,0.54223632812500,0.40612792968750,stop
62.97,3,1,3,0,-0.0400,-0.1100,0.1200,-4.1250,-0.4375,-0.3125,0.45727539062500,-0.57611083984375,0.54211425781250,0.40631103515625,stop
62.98,3,1,3,0,-0.1400,-0.0900,0.1800,-3.0625,-0.3125,0.0625,0.45715332031250,-0.57623291015625,0.54199218750000,0.40649414062500,stop
62.99,3,1,3,0,-0.1400,-0.0600,0.2200,-1.4375,-0.9375,1.0000,0.45709228515625,-0.57623291015625,0.54199218750000,0.40661621093750,stop
63.00,3,1,3,0,-0.1800,-0.0100,0.2600,0.3750,-1.5625,1.8750,0.45709228515625,-0.57604980468750,0.54199218750000,0.40679931640625,stop
63.01,3,1,3,0,-0.0400,0.1800,0.2400,2.2500,-2.5000,2.6250,0.45721435546875,-0.57574462890625,0.54211425781250,0.40692138671875,stop
63.02,3,1,3,0,0.0200,0.2800,0.2300,3.5000,-3.6250,3.5000,0.45745849609375,-0.57531738281250,0.54229736328125,0.40704345703125,stop
63.03,3,1,3,0,0.1300,0.3000,0.1800,4.0625,-4.9375,4.0000,0.45776367187500,-0.57476806640625,0.54241943359375,0.40728759765625,stop
63.04,3,1,3,0,0.2900,0.3100,0.0100,3.8750,-5.7500,4.3125,0.45806884765625,-0.57421875000000,0.54254150390625,0.40753173828125,stop
63.05,3,1,3,0,0.3400,0.2300,0.0100,3.0625,-6.1875,3.6875,0.45837402343750,-0.57366943359375,0.54260253906250,0.40789794921875,stop
63.06,3,1,3,0,0.3100,0.1500,-0.0100,1.5625,-6.3125,3.0625,0.45861816406250,-0.57324218750000,0.54254150390625,0.40826416015625,stop
63.07,3,1,3,0,0.2200,0.0700,-0.0100,0.0000,-6.0625,2.4375,0.45886230468750,-0.57293701171875,0.54241943359375,0.40863037109375,stop
63.08,3,1,3,0,-0.0200,-0.0600,0.0200,-0.8125,-5.4375,2.1875,0.45898437500000,-0.57263183593750,0.54229736328125,0.40905761718750,stop
63.08,3,1,3,0,-0.0500,-0.0600,0.0200,-1.1250,-4.8125,1.9375,0.45953369140625,-0.57287597656250,0.54174804687500,0.40887451171875,stop
63.09,3,1,3,0,-0.0100,-0.0800,0.0000,-1.1250,-4.5000,1.8125,0.45959472656250,-0.57263183593750,0.54162597656250,0.40924072265625,stop
63.11,3,1,3,0,0.0300,-0.0900,-0.0200,-0.7500,-4.6250,1.9375,0.45971679687500,-0.57244873046875,0.54150390625000,0.40954589843750,stop
63.12,3,1,3,0,0.0500,-0.1100,-0.1200,-0.0625,-5.0000,1.9375,0.45989990234375,-0.57214355468750,0.54144287109375,0.40991210937500,stop
63.13,3,1,3,0,0.0700,-0.0800,-0.1700,0.6875,-5.1250,2.3125,0.46008300781250,-0.57183837890625,0.54138183593750,0.41015625000000,stop
63.14,3,1,3,0,0.0700,-0.0500,-0.1700,1.2500,-4.8125,2.6250,0.46026611328125,-0.57153320312500,0.54138183593750,0.41040039062500,stop
63.15,3,1,3,0,0.0800,-0.0100,-0.2100,1.8125,-4.5000,2.8750,0.46044921875000,-0.57122802734375,0.54138183593750,0.41064453125000,stop
63.16,3,1,3,0,0.0000,0.0300,-0.2300,1.8125,-3.8125,2.8125,0.46057128906250,-0.57086181640625,0.54150390625000,0.41082763671875,stop
63.17,3,1,3,0,-0.0200,0.0200,-0.2300,1.5000,-2.8125,2.8125,0.46063232421875,-0.57061767578125,0.54156494140625,0.41094970703125,stop
63.17,3,1,3,0,-0.0100,0.0400,-0.1700,1.4375,-2.3750,2.5625,0.46069335937500,-0.57037353515625,0.54168701171875,0.41107177734375,stop
63.19,3,1,3,0,0.0200,0.0500,-0.1400,0.7500,-2.3125,2.1875,0.46075439453125,-0.57019042968750,0.54174804687500,0.41125488281250,stop
63.20,3,1,3,0,0.0600,0.0900,-0.1100,0.2500,-2.5000,1.5625,0.46075439453125,-0.57000732421875,0.54174804687500,0.41143798828125,stop
63.21,3,1,3,0,0.0500,0.1100,-0.1300,0.1250,-2.6875,0.9375,0.46081542968750,-0.56988525390625,0.54174804687500,0.41156005859375,stop
63.22,3,1,3,0,0.0800,0.1200,-0.1600,-0.4375,-2.9375,0.2500,0.46087646484375,-0.56976318359375,0.54168701171875,0.41168212890625,stop
63.23,3,1,3,0,0.0900,0.0800,-0.1000,-0.5000,-3.5000,0.0000,0.46099853515625,-0.56970214843750,0.54156494140625,0.41186523437500,stop
63.24,3,1,3,0,0.1500,0.0800,-0.1500,-0.5000,-3.7500,-0.4375,0.46112060546875,-0.56958007812500,0.54144287109375,0.41204833984375,stop
63.25,3,1,3,0,0.1200,0.0400,-0.1300,-0.7500,-3.8750,-0.6250,0.46130371093750,-0.56951904296875,0.54125976562500,0.41223144531250,stop
63.26,3,1,3,0,0.1200,0.0100,-0.1800,-0.9375,-3.6875,-0.6875,0.46136474609375,-0.56945800781250,0.54107666015625,0.41241455078125,stop
63.27,3,1,3,0,0.1900,0.0200,-0.2300,-1.1250,-3.1250,-0.8125,0.46148681640625,-0.56945800781250,0.54089355468750,0.41253662109375,stop
63.28,3,1,3,0,0.2000,0.0000,-0.2500,-1.4375,-2.3125,-1.0625,0.46148681640625,-0.56951904296875,0.54071044921875,0.41265869140625,stop
63.29,3,1,3,0,0.2100,-0.0200,-0.2000,-1.5625,-1.1875,-1.0625,0.46142578125000,-0.56964111328125,0.54058837890625,0.41265869140625,stop
63.30,3,1,3,0,0.2300,-0.0400,-0.1800,-1.8125,-0.0625,-1.1250,0.46136474609375,-0.56982421875000,0.54052734375000,0.41265869140625,stop
63.31,3,1,3,0,0.1700,-0.0500,-0.1000,-2.1875,0.3750,-1.1250,0.46124267578125,-0.57000732421875,0.54040527343750,0.41265869140625,stop
63.32,3,1,3,0,0.1300,-0.0700,-0.0500,-2.2500,0.9375,-1.0000,0.46112060546875,-0.57019042968750,0.54034423828125,0.41265869140625,stop
63.33,3,1,3,0,0.0700,-0.0700,-0.0300,-2.0000,1.2500,-0.8750,0.46099853515625,-0.57037353515625,0.54028320312500,0.41265869140625,stop
63.34,3,1,3,0,0.0700,-0.0700,-0.0600,-1.6250,1.6250,-0.4375,0.46081542968750,-0.57055664062500,0.54028320312500,0.41259765625000,stop
63.35,3,1,3,0,0.0400,-0.0300,-0.0200,-1.0000,2.3750,-0.1250,0.46063232421875,-0.57067871093750,0.54034423828125,0.41253662109375,stop
63.36,3,1,3,0,0.0300,0.0000,0.0000,-0.5000,2.6250,0.1875,0.46051025390625,-0.57080078125000,0.54046630859375,0.41235351562500,stop
63.37,3,1,3,0,0.0000,0.0100,0.0800,0.0000,2.6875,0.5000,0.46038818359375,-0.57086181640625,0.54052734375000,0.41223144531250,stop
63.38,3,1,3,0,-0.0300,0.0400,0.1200,0.1250,2.5000,0.6250,0.46026611328125,-0.57092285156250,0.54071044921875,0.41217041015625,stop
63.39,3,1,3,0,-0.0100,0.0700,0.0800,0.6250,2.0000,0.8750,0.46014404296875,-0.57092285156250,0.54083251953125,0.41204833984375,stop
63.40,3,1,3,0,0.0000,0.0900,0.0000,1.2500,1.3750,0.6875,0.46014404296875,-0.57086181640625,0.54095458984375,0.41198730468750,stop
63.41,3,1,3,0,0.0400,0.0900,-0.0300,1.5625,1.1875,0.6250,0.46014404296875,-0.57086181640625,0.54113769531250,0.41186523437500,stop
63.42,3,1,3,0,0.0700,0.0900,-0.0300,1.4375,1.3750,0.4375,0.46014404296875,-0.57080078125000,0.54125976562500,0.41174316406250,stop
63.43,3,1,3,0,0.0600,0.0800,0.0000,1.1250,1.5625,0.1875,0.46008300781250,-0.57086181640625,0.54132080078125,0.41162109375000,stop
63.44,3,1,3,0,0.0400,0.0500,0.0200,0.7500,2.1250,0.0625,0.46002197265625,-0.57086181640625,0.54144287109375,0.41143798828125,stop
63.45,3,1,3,0,0.0000,0.0700,0.0800,0.6250,2.1875,0.1875,0.45996093750000,-0.57092285156250,0.54156494140625,0.41131591796875,stop
63.46,3,1,3,0,0.0400,0.0900,0.0400,0.1875,1.8750,-0.0625,0.45983886718750,-0.57098388671875,0.54168701171875,0.41125488281250,stop
63.47,3,1,3,0,0.0500,0.0700,0.0000,0.1250,1.3125,-0.1250,0.45977783203125,-0.57104492187500,0.54174804687500,0.41119384765625,stop
63.48,3,1,3,0,0.0900,0.0500,-0.0400,0.0000,0.8750,0.0000,0.45971679687500,-0.57104492187500,0.54174804687500,0.41113281250000,stop
63.49,3,1,3,0,0.1100,0.0200,-0.0700,-0.3125,0.6250,0.0000,0.45971679687500,-0.57110595703125,0.54180908203125,0.41107177734375,stop
63.50,3,1,3,0,0.1600,-0.0200,-0.0300,-1.0625,1.1250,-0.3750,0.45959472656250,-0.57116699218750,0.54180908203125,0.41107177734375,stop
63.51,3,1,3,0,0.1300,-0.0600,-0.0200,-1.5625,2.0625,-0.8125,0.45941162109375,-0.57135009765625,0.54180908203125,0.41101074218750,stop
63.52,3,1,3,0,0.1200,-0.0800,0.0000,-1.7500,2.6875,-1.0000,0.45922851562500,-0.57159423828125,0.54180908203125,0.41088867187500,stop
63.53,3,1,3,0,0.0800,-0.0700,0.0000,-1.6250,3.3125,-1.2500,0.45904541015625,-0.57183837890625,0.54180908203125,0.41076660156250,stop
63.54,3,1,3,0,0.0500,-0.1100,0.0100,-1.4375,3.7500,-1.1250,0.45886230468750,-0.57208251953125,0.54180908203125,0.41058349609375,stop
63.55,3,1,3,0,0.0500,-0.0900,0.0100,-1.0000,3.8125,-0.8125,0.45867919921875,-0.57232666015625,0.54193115234375,0.41040039062500,stop
63.56,3,1,3,0,0.0500,-0.0400,0.0000,-0.6875,3.5625,-0.5000,0.45843505859375,-0.57244873046875,0.54199218750000,0.41027832031250,stop
63.57,3,1,3,0,0.0000,-0.0700,-0.0400,-0.6250,3.4375,-0.3125,0.45825195312500,-0.57263183593750,0.54211425781250,0.41009521484375,stop
63.58,3,1,3,0,0.0200,-0.0500,-0.0300,-0.5625,3.1875,-0.0625,0.45806884765625,-0.57275390625000,0.54223632812500,0.40997314453125,stop
63.58,3,1,3,0,0.0200,-0.0500,-0.0100,-0.4375,3.0625,0.0000,0.45794677734375,-0.57287597656250,0.54235839843750,0.40979003906250,stop
63.60,3,1,3,0,0.0400,-0.0400,0.0300,-0.1875,3.2500,-0.1250,0.45776367187500,-0.57299804687500,0.54248046875000,0.40960693359375,stop
63.61,3,1,3,0,0.0300,-0.0600,0.0600,-0.3125,2.9375,-0.3750,0.45764160156250,-0.57312011718750,0.54260253906250,0.40948486328125,stop
63.62,3,1,3,0,0.0400,-0.1100,0.0700,0.0625,3.0625,-0.4375,0.45751953125000,-0.57324218750000,0.54272460937500,0.40930175781250,stop
63.63,3,1,3,0,0.0900,-0.1000,0.0500,0.4375,2.8125,-0.1875,0.45739746093750,-0.57336425781250,0.54284667968750,0.40917968750000,stop
63.64,3,1,3,0,0.0900,-0.1000,0.0300,0.6875,2.4375,-0.1250,0.45733642578125,-0.57342529296875,0.54290771484375,0.40899658203125,stop
63.65,3,1,3,0,0.0900,-0.1000,0.0200,0.7500,2.0000,-0.2500,0.45727539062500,-0.57348632812500,0.54302978515625,0.40887451171875,stop
63.66,3,1,3,0,0.0300,-0.0800,0.0400,0.8750,1.7500,-0.1875,0.45721435546875,-0.57348632812500,0.54315185546875,0.40869140625000,stop
63.67,3,1,3,0,0.0100,-0.0800,0.0700,1.1250,1.8750,-0.2500,0.45721435546875,-0.57354736328125,0.54321289062500,0.40856933593750,stop
63.68,3,1,3,0,0.0000,-0.0500,0.1200,1.0625,2.2500,-0.5000,0.45721435546875,-0.57354736328125,0.54333496093750,0.40838623046875,stop
63.69,3,1,3,0,-0.0200,-0.0600,0.1300,0.9375,1.9375,-0.5000,0.45715332031250,-0.57360839843750,0.54345703125000,0.40826416015625,stop
63.70,3,1,3,0,-0.0200,-0.0300,0.1300,1.1250,1.9375,-0.5625,0.45715332031250,-0.57360839843750,0.54351806640625,0.40808105468750,stop
63.71,3,1,3,0,0.0000,-0.0300,0.1100,1.4375,1.5625,-0.3750,0.45721435546875,-0.57360839843750,0.54364013671875,0.40795898437500,stop
63.72,3,1,3,0,0.0300,-0.0200,0.0600,1.7500,1.3750,-0.3125,0.45721435546875,-0.57360839843750,0.54370117187500,0.40777587890625,stop
63.73,3,1,3,0,0.0700,-0.0100,0.0300,1.8125,1.1875,-0.4375,0.45727539062500,-0.57354736328125,0.54382324218750,0.40765380859375,stop
63.74,3,1,3,0,0.0700,-0.0300,0.0300,1.5625,1.3125,-0.6875,0.45733642578125,-0.57360839843750,0.54388427734375,0.40747070312500,stop
63.75,3,1,3,0,0.1000,-0.0400,0.0800,1.3125,1.3125,-0.8750,0.45733642578125,-0.57360839843750,0.54394531250000,0.40728759765625,stop
63.76,3,1,3,0,0.0800,-0.0400,0.0900,1.2500,1.4375,-1.0000,0.45739746093750,-0.57366943359375,0.54400634765625,0.40710449218750,stop
63.77,3,1,3,0,0.0700,-0.0200,0.0800,1.2500,1.5000,-1.1250,0.45745849609375,-0.57373046875000,0.54406738281250,0.40692138671875,stop
63.78,3,1,3,0,0.0600,-0.0100,0.0800,1.2500,1.3750,-1.0625,0.45745849609375,-0.57379150390625,0.54406738281250,0.40679931640625,stop
63.79,3,1,3,0,0.0600,0.0000,0.1000,1.4375,1.7500,-1.0000,0.45751953125000,-0.57385253906250,0.54412841796875,0.40655517578125,stop
63.80,3,1,3,0,0.0400,0.0000,0.0700,1.4375,2.1875,-0.9375,0.45751953125000,-0.57391357421875,0.54425048828125,0.40637207031250,stop
63.81,3,1,3,0,0.0200,-0.0400,0.0700,1.4375,2.3125,-1.0000,0.45751953125000,-0.57397460937500,0.54431152343750,0.40612792968750,stop
63.82,3,1,3,0,0.0100,-0.0300,0.0800,1.4375,2.7500,-1.0000,0.45751953125000,-0.57403564453125,0.54443359375000,0.40588378906250,stop
63.83,3,1,3,0,0.0300,0.0000,0.0900,1.3750,2.9375,-0.8750,0.45745849609375,-0.57415771484375,0.54455566406250,0.40563964843750,stop
63.83,3,1,3,0,0.0000,-0.0100,0.0800,1.5000,3.0000,-0.9375,0.45745849609375,-0.57421875000000,0.54467773437500,0.40539550781250,stop
63.85,3,1,3,0,0.0300,0.0000,0.0400,1.6250,2.9375,-0.9375,0.45745849609375,-0.57434082031250,0.54479980468750,0.40509033203125,stop
63.86,3,1,3,0,0.0400,0.0000,0.0600,1.5000,2.6250,-1.1250,0.45745849609375,-0.57440185546875,0.54492187500000,0.40484619140625,stop
63.87,3,1,3,0,0.0200,-0.0200,0.0600,1.4375,2.6250,-0.8750,0.45739746093750,-0.57446289062500,0.54498291015625,0.40460205078125,stop
63.88,3,1,3,0,0.0100,-0.0300,0.0300,1.3125,2.5000,-0.6875,0.45739746093750,-0.57452392578125,0.54510498046875,0.40441894531250,stop
63.89,3,1,3,0,0.0300,-0.0400,0.0100,1.1250,2.6250,-0.4375,0.45733642578125,-0.57458496093750,0.54522705078125,0.40423583984375,stop
63.90,3,1,3,0,0.0400,-0.0300,0.0400,1.3125,2.8125,-0.4375,0.45727539062500,-0.57464599609375,0.54541015625000,0.40399169921875,stop
63.91,3,1,3,0,0.0200,-0.0500,0.0800,1.3125,3.2500,-0.2500,0.45721435546875,-0.57470703125000,0.54559326171875,0.40374755859375,stop
63.92,3,1,3,0,0.0000,-0.0500,0.0800,1.3125,3.5625,-0.4375,0.45709228515625,-0.57476806640625,0.54577636718750,0.40350341796875,stop
63.93,3,1,3,0,0.0000,-0.0400,0.0700,1.5000,3.6250,-0.5000,0.45703125000000,-0.57482910156250,0.54595947265625,0.40325927734375,stop
63.94,3,1,3,0,0.0200,-0.0100,0.0800,1.7500,3.4375,-0.4375,0.45697021484375,-0.57489013671875,0.54614257812500,0.40301513671875,stop
63.95,3,1,3,0,0.0500,0.0200,0.0900,1.6250,3.0000,-0.3125,0.45690917968750,-0.57495117187500,0.54632568359375,0.40277099609375,stop
63.96,3,1,3,0,0.0500,0.0400,0.1000,1.5625,2.8750,-0.3125,0.45684814453125,-0.57495117187500,0.54650878906250,0.40258789062500,stop
63.97,3,1,3,0,0.0300,0.0600,0.1300,1.4375,2.8750,-0.3125,0.45678710937500,-0.57501220703125,0.54663085937500,0.40234375000000,stop
63.98,3,1,3,0,0.0300,0.0700,0.1200,1.3750,2.9375,-0.1875,0.45672607421875,-0.57501220703125,0.54681396484375,0.40216064453125,stop
63.99,3,1,3,0,0.0000,0.0600,0.1000,1.0625,3.0625,-0.3750,0.45660400390625,-0.57507324218750,0.54699707031250,0.40197753906250,stop
64.00,3,1,3,0,-0.0300,0.0400,0.0700,0.8125,3.4375,-0.5000,0.45654296875000,-0.57513427734375,0.54711914062500,0.40179443359375,stop
64.01,3,1,3,0,-0.0300,0.0400,0.0900,0.6875,3.5625,-0.6250,0.45642089843750,-0.57525634765625,0.54724121093750,0.40155029296875,stop
64.02,3,1,3,0,-0.0400,0.0300,0.0900,0.5000,3.4375,-0.7500,0.45629882812500,-0.57543945312500,0.54736328125000,0.40136718750000,stop
64.03,3,1,3,0,-0.0300,0.0100,0.0600,0.6250,3.4375,-0.6875,0.45617675781250,-0.57556152343750,0.54748535156250,0.40112304687500,stop
64.04,3,1,3,0,0.0100,-0.0200,0.0500,0.6875,3.2500,-0.8750,0.45611572265625,-0.57568359375000,0.54760742187500,0.40093994140625,stop
64.05,3,1,3,0,0.0500,-0.0400,0.0600,0.5625,2.9375,-0.8750,0.45599365234375,-0.57580566406250,0.54766845703125,0.40069580078125,stop
64.06,3,1,3,0,0.0300,-0.0600,0.0500,0.6250,3.1875,-0.8125,0.45593261718750,-0.57592773437500,0.54779052734375,0.40045166015625,stop
64.07,3,1,3,0,0.0300,-0.0500,0.0200,0.5625,3.0625,-0.8750,0.45587158203125,-0.57604980468750,0.54785156250000,0.40026855468750,stop
64.08,3,1,3,0,0.0500,-0.0600,0.0100,0.6250,3.1250,-0.6875,0.45574951171875,-0.57617187500000,0.54797363281250,0.40002441406250,stop
64.08,3,1,3,0,0.0300,-0.0800,-0.0100,0.5625,3.4375,-0.8750,0.45568847656250,-0.57629394531250,0.54809570312500,0.39978027343750,stop
64.10,3,1,3,0,0.0300,-0.1000,0.0100,0.5625,3.8750,-0.7500,0.45556640625000,-0.57647705078125,0.54821777343750,0.39953613281250,stop
64.11,3,1,3,0,0.0500,-0.1400,0.0400,0.6875,3.9375,-0.7500,0.45544433593750,-0.57659912109375,0.54833984375000,0.39923095703125,stop
64.12,3,1,3,0,0.0500,-0.1500,0.0400,1.0625,4.1250,-0.8125,0.45532226562500,-0.57678222656250,0.54852294921875,0.39892578125000,stop
64.13,3,1,3,0,0.0200,-0.1400,0.0400,1.5625,4.1875,-0.4375,0.45526123046875,-0.57684326171875,0.54870605468750,0.39862060546875,stop
64.14,3,1,3,0,0.0300,-0.1200,0.0200,1.9375,3.9375,-0.5625,0.45520019531250,-0.57696533203125,0.54888916015625,0.39831542968750,stop
64.15,3,1,3,0,0.0100,-0.0700,0.0400,2.1250,4.0000,-0.5000,0.45513916015625,-0.57702636718750,0.54907226562500,0.39801025390625,stop
64.16,3,1,3,0,0.0400,-0.0300,0.0800,2.3125,3.8750,-0.5000,0.45507812500000,-0.57708740234375,0.54931640625000,0.39770507812500,stop
64.17,3,1,3,0,0.0500,-0.0100,0.0200,2.4375,3.6250,-0.5000,0.45501708984375,-0.57708740234375,0.54956054687500,0.39739990234375,stop
64.18,3,1,3,0,0.0400,-0.0100,0.0400,2.3750,3.5000,-0.8125,0.45501708984375,-0.57714843750000,0.54974365234375,0.39703369140625,stop
64.19,3,1,3,0,0.0900,0.0100,0.0100,2.3125,3.3125,-0.7500,0.45501708984375,-0.57720947265625,0.54992675781250,0.39672851562500,stop
64.20,3,1,3,0,0.1000,0.0100,0.0300,2.3750,3.4375,-1.0625,0.45501708984375,-0.57727050781250,0.55004882812500,0.39642333984375,stop
64.21,3,1,3,0,0.1500,0.0000,0.0000,2.3125,3.3750,-1.3125,0.45501708984375,-0.57739257812500,0.55023193359375,0.39605712890625,stop
64.22,3,1,3,0,0.0800,0.0100,-0.0500,2.2500,3.6250,-1.1875,0.45495605468750,-0.57751464843750,0.55035400390625,0.39575195312500,stop
64.23,3,1,3,0,0.0700,-0.0400,-0.1100,1.9375,3.6250,-1.3125,0.45495605468750,-0.57757568359375,0.55053710937500,0.39538574218750,stop
64.24,3,1,3,0,0.0800,-0.0500,-0.1200,2.1875,3.5000,-1.4375,0.45495605468750,-0.57769775390625,0.55065917968750,0.39501953125000,stop
64.25,3,1,3,0,0.0900,-0.1100,-0.0600,2.3750,3.5625,-1.5625,0.45495605468750,-0.57781982421875,0.55078125000000,0.39465332031250,stop
64.26,3,1,3,0,0.0600,-0.1800,0.0000,2.5625,3.8750,-1.4375,0.45495605468750,-0.57794189453125,0.55096435546875,0.39422607421875,stop
64.27,3,1,3,0,0.0400,-0.1800,0.0000,3.0000,4.0000,-1.3125,0.45495605468750,-0.57806396484375,0.55114746093750,0.39379882812500,stop
64.28,3,1,3,0,0.0900,-0.1400,-0.0100,3.5000,3.6875,-1.0625,0.45501708984375,-0.57812500000000,0.55133056640625,0.39337158203125,stop
64.29,3,1,3,0,0.0800,-0.1000,-0.0500,3.6250,3.2500,-1.0625,0.45507812500000,-0.57818603515625,0.55151367187500,0.39300537109375,stop
64.30,3,1,3,0,0.0500,-0.0900,-0.0100,3.8125,3.0625,-1.0000,0.45520019531250,-0.57818603515625,0.55175781250000,0.39257812500000,stop
64.31,3,1,3,0,0.0000,-0.0400,0.0700,4.0625,2.6875,-0.8125,0.45526123046875,-0.57812500000000,0.55194091796875,0.39221191406250,stop
64.32,3,1,3,0,-0.0400,-0.0200,0.1000,4.1250,2.5000,-1.0000,0.45538330078125,-0.57812500000000,0.55212402343750,0.39184570312500,stop
64.33,3,1,3,0,-0.0700,0.0400,0.1700,4.5000,2.0000,-1.1250,0.45556640625000,-0.57806396484375,0.55230712890625,0.39147949218750,stop
64.34,3,1,3,0,-0.0900,0.0100,0.1100,4.5625,1.2500,-1.3750,0.45581054687500,-0.57800292968750,0.55242919921875,0.39111328125000,stop
64.35,3,1,3,0,-0.0800,-0.0200,0.0700,4.9375,0.3750,-1.4375,0.45611572265625,-0.57788085937500,0.55255126953125,0.39080810546875,stop
64.36,3,1,3,0,-0.0700,-0.0400,0.0300,5.1250,0.0000,-1.5625,0.45642089843750,-0.57775878906250,0.55261230468750,0.39050292968750,stop
64.37,3,1,3,0,-0.0800,-0.0900,0.0200,5.1875,-0.3125,-1.6250,0.45672607421875,-0.57763671875000,0.55273437500000,0.39019775390625,stop
64.38,3,1,3,0,-0.0800,-0.1700,0.1000,5.4375,-0.5625,-2.0000,0.45709228515625,-0.57745361328125,0.55279541015625,0.38989257812500,stop
64.39,3,1,3,0,-0.1200,-0.2300,0.1000,5.5000,-1.3750,-2.5000,0.45751953125000,-0.57733154296875,0.55279541015625,0.38958740234375,stop
64.40,3,1,3,0,-0.1600,-0.2600,0.1600,5.5625,-2.6250,-2.5625,0.45812988281250,-0.57714843750000,0.55267333984375,0.38934326171875,stop
64.41,3,1,3,0,-0.1700,-0.2900,0.2100,5.8125,-4.4375,-2.8750,0.45886230468750,-0.57690429687500,0.55242919921875,0.38916015625000,stop
64.42,3,1,3,0,-0.2800,-0.3000,0.2300,6.4375,-6.5000,-3.3750,0.45977783203125,-0.57659912109375,0.55212402343750,0.38897705078125,stop
64.43,3,1,3,0,-0.3200,-0.2900,0.1700,6.8750,-8.5000,-4.2500,0.46087646484375,-0.57623291015625,0.55163574218750,0.38891601562500,stop
64.44,3,1,3,0,-0.3500,-0.2700,0.1400,7.8750,-10.5625,-5.1875,0.46209716796875,-0.57580566406250,0.55114746093750,0.38885498046875,stop
64.45,3,1,3,0,-0.2800,-0.1400,0.0400,8.9375,-11.5000,-6.6250,0.46337890625000,-0.57537841796875,0.55053710937500,0.38873291015625,stop
64.46,3,1,3,0,-0.1500,-0.0900,0.0300,9.7500,-12.0625,-8.4375,0.46478271484375,-0.57495117187500,0.54992675781250,0.38848876953125,stop
64.47,3,1,3,0,-0.1100,-0.0400,-0.0300,10.1250,-12.3125,-10.3750,0.46624755859375,-0.57464599609375,0.54925537109375,0.38824462890625,stop
64.48,3,1,3,0,0.0000,0.0000,-0.0600,10.0625,-12.0000,-12.4375,0.46777343750000,-0.57440185546875,0.54846191406250,0.38781738281250,stop
64.49,3,1,3,0,0.1500,0.0400,-0.2200,9.3750,-11.6875,-14.5000,0.46929931640625,-0.57434082031250,0.54760742187500,0.38739013671875,stop
64.50,3,1,3,0,0.1800,0.1100,-0.2500,9.5625,-11.7500,-16.0000,0.47088623046875,-0.57427978515625,0.54663085937500,0.38684082031250,stop
64.51,3,1,3,0,0.2500,0.1500,-0.2600,10.1250,-11.3750,-17.1875,0.47253417968750,-0.57434082031250,0.54565429687500,0.38623046875000,stop
64.52,3,1,3,0,0.3000,0.2600,-0.2600,10.1875,-10.3750,-17.7500,0.47412109375000,-0.57440185546875,0.54467773437500,0.38549804687500,stop
64.53,3,1,3,0,0.4000,0.5600,-0.3100,10.1250,-9.2500,-18.0625,0.47570800781250,-0.57452392578125,0.54370117187500,0.38476562500000,stop
64.54,3,1,3,0,0.4300,0.7000,-0.4600,9.7500,-7.6250,-17.3750,0.47711181640625,-0.57470703125000,0.54284667968750,0.38397216796875,stop
64.55,3,1,3,0,0.5100,0.7600,-0.5600,9.0625,-5.2500,-16.3750,0.47839355468750,-0.57489013671875,0.54211425781250,0.38311767578125,stop
64.56,3,1,3,0,0.5600,0.8200,-0.6500,8.5625,-2.6250,-14.5000,0.47943115234375,-0.57513427734375,0.54156494140625,0.38220214843750,stop
64.57,3,1,3,0,0.4400,1.1100,-0.7000,7.8125,1.1250,-12.3125,0.48016357421875,-0.57543945312500,0.54125976562500,0.38128662109375,stop
64.58,3,1,3,0,0.3500,1.3100,-0.5800,6.4375,4.6875,-10.3750,0.48059082031250,-0.57580566406250,0.54113769531250,0.38031005859375,stop
64.58,3,1,3,0,0.3500,1.3100,-0.5800,6.4375,4.6875,-10.3750,0.48059082031250,-0.57580566406250,0.54113769531250,0.38031005859375,stop
64.59,3,1,3,0,0.3100,1.5700,-0.4400,6.1875,7.6875,-8.0000,0.48083496093750,-0.57617187500000,0.54125976562500,0.37927246093750,stop
64.60,3,1,3,0,0.2500,1.7500,-0.3800,6.6250,9.1875,-5.6250,0.48089599609375,-0.57647705078125,0.54156494140625,0.37829589843750,stop
64.61,3,1,3,0,0.3700,1.9500,-0.1800,6.6875,9.8125,-3.1250,0.48089599609375,-0.57666015625000,0.54205322265625,0.37731933593750,stop
64.62,3,1,3,0,0.4500,2.0800,-0.1400,6.2500,11.6875,-0.1875,0.48065185546875,-0.57678222656250,0.54278564453125,0.37646484375000,stop
64.63,3,1,3,0,0.5300,2.2500,-0.1500,4.8750,13.8750,3.6875,0.48010253906250,-0.57684326171875,0.54370117187500,0.37567138671875,stop
64.64,3,1,3,0,0.5900,2.3800,-0.2600,2.2500,13.8125,8.2500,0.47924804687500,-0.57684326171875,0.54479980468750,0.37518310546875,stop
64.65,3,1,3,0,0.7200,2.5300,-0.4200,-0.8750,12.4375,12.9375,0.47821044921875,-0.57666015625000,0.54595947265625,0.37518310546875,moving
64.66,3,1,3,0,0.8200,2.5300,-0.4500,-4.8125,12.5000,17.3750,0.47674560546875,-0.57641601562500,0.54718017578125,0.37548828125000,moving
64.67,3,1,3,0,0.8600,2.4000,-0.4700,-9.1875,12.9375,20.9375,0.47497558593750,-0.57623291015625,0.54846191406250,0.37615966796875,moving
64.68,3,1,3,0,0.9800,2.2300,-0.5100,-13.4375,13.5625,24.5625,0.47283935546875,-0.57604980468750,0.54986572265625,0.37713623046875,moving
64.69,3,1,3,0,1.0000,2.1000,-0.5100,-18.3750,16.6250,27.5000,0.47021484375000,-0.57604980468750,0.55133056640625,0.37835693359375,moving
64.70,3,1,3,0,1.1100,1.9300,-0.3800,-22.6250,21.0000,30.1875,0.46704101562500,-0.57617187500000,0.55297851562500,0.37963867187500,moving
64.71,3,1,3,0,1.2300,1.6700,-0.2900,-25.8750,25.7500,33.1250,0.46337890625000,-0.57647705078125,0.55480957031250,0.38092041015625,moving
64.72,3,1,3,0,1.2300,1.1800,-0.2900,-28.1875,29.6875,36.8125,0.45922851562500,-0.57684326171875,0.55694580078125,0.38232421875000,moving
64.73,3,1,3,0,1.2300,0.7700,-0.3600,-29.9375,32.7500,39.7500,0.45477294921875,-0.57714843750000,0.55926513671875,0.38372802734375,moving
64.74,3,1,3,0,1.1100,0.4000,-0.4800,-30.8750,35.3750,42.4375,0.45007324218750,-0.57751464843750,0.56176757812500,0.38513183593750,moving
64.75,3,1,3,0,0.8700,0.0400,-0.4100,-30.0625,38.0000,45.4375,0.44512939453125,-0.57769775390625,0.56457519531250,0.38647460937500,moving
64.76,3,1,3,0,0.4000,-0.7400,0.1700,-32.8125,39.6875,45.5000,0.43994140625000,-0.57806396484375,0.56732177734375,0.38787841796875,moving
64.77,3,1,3,0,0.2000,-1.2700,0.4800,-38.3125,43.0625,43.1250,0.43438720703125,-0.57885742187500,0.56982421875000,0.38922119140625,moving
64.78,3,1,3,0,-0.0300,-1.8000,0.7000,-43.7500,47.1250,38.5000,0.42852783203125,-0.58020019531250,0.57208251953125,0.39050292968750,moving
64.79,3,1,3,0,-0.2400,-2.4700,0.8400,-47.5000,49.8750,31.8750,0.42248535156250,-0.58203125000000,0.57397460937500,0.39154052734375,moving
64.80,3,1,3,0,-0.5600,-3.7500,1.1800,-50.4375,48.2500,23.0000,0.41674804687500,-0.58435058593750,0.57519531250000,0.39245605468750,moving
64.81,3,1,3,0,-0.8400,-4.4600,1.2800,-54.9375,44.3750,12.2500,0.41125488281250,-0.58728027343750,0.57550048828125,0.39337158203125,moving
64.82,3,1,3,0,-1.1100,-4.8100,1.5600,-60.9375,34.4375,0.3125,0.40637207031250,-0.59063720703125,0.57464599609375,0.39471435546875,moving
64.83,3,1,3,0,-1.3000,-5.0700,1.6100,-64.9375,22.8750,-12.0000,0.40228271484375,-0.59429931640625,0.57263183593750,0.39630126953125,moving
64.84,3,1,3,0,-1.6300,-5.1600,1.5700,-65.0625,10.8125,-21.5625,0.39910888671875,-0.59802246093750,0.56964111328125,0.39825439453125,moving
64.85,3,1,3,0,-1.9500,-5.0000,1.7600,-58.0000,-1.0625,-25.3750,0.39703369140625,-0.60125732421875,0.56622314453125,0.40026855468750,moving
64.86,3,1,3,0,-2.2000,-4.5800,1.9000,-46.1875,-10.3750,-26.1875,0.39605712890625,-0.60382080078125,0.56286621093750,0.40222167968750,moving
64.86,3,1,3,0,-2.2000,-4.5800,1.9000,-46.1875,-10.3750,-26.1875,0.39605712890625,-0.60382080078125,0.56286621093750,0.40222167968750,moving
64.87,3,1,3,0,-2.2000,-4.0400,1.4200,-34.8750,-15.1250,-27.0000,0.39587402343750,-0.60577392578125,0.55969238281250,0.40380859375000,moving
64.88,3,1,3,0,-2.1500,-4.0500,1.0500,-22.8750,-17.6250,-28.6250,0.39654541015625,-0.60736083984375,0.55670166015625,0.40484619140625,moving
64.89,3,1,3,0,-1.9900,-4.0000,0.5200,-10.8125,-21.0625,-30.1250,0.39813232421875,-0.60845947265625,0.55401611328125,0.40539550781250,moving
64.90,3,1,3,0,-1.7900,-3.9100,-0.0600,-0.1875,-21.2500,-31.4375,0.40026855468750,-0.60925292968750,0.55157470703125,0.40545654296875,moving
64.91,3,1,3,0,-1.6000,-3.3800,-0.5100,5.8750,-17.3125,-34.1875,0.40264892578125,-0.61004638671875,0.54931640625000,0.40490722656250,moving
64.92,3,1,3,0,-1.6200,-3.2700,-1.3600,11.4375,-14.7500,-39.3750,0.40539550781250,-0.61102294921875,0.54711914062500,0.40374755859375,moving
64.93,3,1,3,0,-1.3300,-3.1900,-0.7800,16.6875,-13.4375,-44.6875,0.40850830078125,-0.61212158203125,0.54479980468750,0.40203857421875,moving
64.94,3,1,3,0,-1.0900,-2.8600,-0.2500,23.1250,-16.5000,-47.9375,0.41223144531250,-0.61297607421875,0.54248046875000,0.40008544921875,moving
64.95,3,1,3,0,-0.9700,-2.3500,-0.1200,28.6875,-19.1250,-50.5625,0.41644287109375,-0.61364746093750,0.54003906250000,0.39794921875000,moving
64.96,3,1,3,0,-1.1900,-2.0700,-0.0500,32.9375,-21.8750,-52.3125,0.42108154296875,-0.61413574218750,0.53753662109375,0.39562988281250,moving
64.97,3,1,3,0,-1.2900,-1.7800,-0.0400,36.8125,-28.1875,-54.5000,0.42633056640625,-0.61437988281250,0.53485107421875,0.39337158203125,moving
64.98,3,1,3,0,-1.2800,-1.4200,-0.2700,42.0000,-38.0000,-55.5625,0.43225097656250,-0.61413574218750,0.53186035156250,0.39135742187500,moving
64.99,3,1,3,0,-1.2100,-0.7500,-0.8600,49.3750,-46.5000,-55.2500,0.43896484375000,-0.61322021484375,0.52874755859375,0.38946533203125,moving
65.00,3,1,3,0,-1.2300,-0.3200,-1.0100,57.3125,-50.1875,-55.0625,0.44622802734375,-0.61187744140625,0.52581787109375,0.38732910156250,moving
65.01,3,1,3,0,-1.1600,0.1100,-0.9100,59.8125,-49.2500,-56.4375,0.45361328125000,-0.61041259765625,0.52288818359375,0.38500976562500,moving
65.02,3,1,3,0,-1.1200,0.6900,-0.5800,54.1250,-47.3750,-60.9375,0.46069335937500,-0.60949707031250,0.51953125000000,0.38262939453125,moving
65.03,3,1,3,0,-0.8100,2.0900,0.0100,45.6250,-45.8750,-67.0000,0.46746826171875,-0.60913085937500,0.51556396484375,0.38024902343750,moving
65.04,3,1,3,0,-0.4500,2.7400,0.4000,41.5000,-42.5000,-70.6250,0.47393798828125,-0.60919189453125,0.51147460937500,0.37774658203125,moving
65.05,3,1,3,0,-0.2800,3.5100,0.3300,42.7500,-36.5625,-70.5000,0.48016357421875,-0.60937500000000,0.50756835937500,0.37481689453125,moving
65.06,3,1,3,0,0.8000,4.8200,0.0700,45.7500,-29.0000,-66.8750,0.48608398437500,-0.60943603515625,0.50427246093750,0.37152099609375,moving
65.07,3,1,3,0,1.3700,5.3100,-0.2700,43.8125,-21.0625,-61.9375,0.49139404296875,-0.60961914062500,0.50146484375000,0.36804199218750,moving
65.08,3,1,3,0,1.9500,5.7100,-1.1600,32.5625,-9.2500,-56.6875,0.49536132812500,-0.61041259765625,0.49908447265625,0.36468505859375,moving
65.09,3,1,3,0,2.2200,6.2500,-1.9500,18.1875,-2.6250,-51.1250,0.49804687500000,-0.61175537109375,0.49676513671875,0.36181640625000,moving
65.10,3,1,3,0,2.3300,7.2800,-1.9700,5.2500,-0.2500,-43.7500,0.49969482421875,-0.61340332031250,0.49462890625000,0.35968017578125,moving
65.11,3,1,3,0,2.1900,7.6200,-1.9700,-2.8125,7.5000,-33.1250,0.50030517578125,-0.61517333984375,0.49310302734375,0.35797119140625,moving
65.12,3,1,3,0,1.9600,7.7500,-1.8600,-3.8750,10.6250,-21.5000,0.50030517578125,-0.61663818359375,0.49224853515625,0.35662841796875,moving
65.12,3,1,3,0,1.9600,7.7500,-1.8600,-3.8750,10.6250,-21.5000,0.50030517578125,-0.61663818359375,0.49224853515625,0.35662841796875,moving
65.13,3,1,3,0,1.7000,7.4900,-1.6100,-0.7500,9.3125,-9.4375,0.50012207031250,-0.61737060546875,0.49212646484375,0.35577392578125,moving
65.14,3,1,3,0,1.3300,5.7700,-1.3500,-1.0000,5.8750,0.1875,0.49981689453125,-0.61755371093750,0.49237060546875,0.35546875000000,moving
65.15,3,1,3,0,1.0400,4.3400,-1.6000,-13.0000,4.4375,5.4375,0.49871826171875,-0.61804199218750,0.49249267578125,0.35601806640625,moving
65.16,3,1,3,0,0.7400,3.2700,-1.7400,-30.2500,5.7500,7.6875,0.49658203125000,-0.61920166015625,0.49224853515625,0.35736083984375,moving
65.17,3,1,3,0,0.6600,2.7300,-1.9400,-39.0625,9.8750,11.7500,0.49365234375000,-0.62066650390625,0.49206542968750,0.35906982421875,moving
65.18,3,1,3,0,0.8200,2.1300,-2.1900,-37.5625,15.3750,18.3750,0.49035644531250,-0.62200927734375,0.49255371093750,0.36065673828125,moving
65.19,3,1,3,0,0.9700,2.0700,-2.2400,-35.5625,22.6875,27.8750,0.48651123046875,-0.62298583984375,0.49395751953125,0.36212158203125,moving
65.20,3,1,3,0,0.8700,1.8500,-2.0900,-34.6250,32.5625,36.8125,0.48205566406250,-0.62390136718750,0.49627685546875,0.36340332031250,moving
65.21,3,1,3,0,0.4400,1.7300,-1.6400,-36.5000,40.9375,45.6250,0.47680664062500,-0.62475585937500,0.49932861328125,0.36468505859375,moving
65.22,3,1,3,0,-0.2300,1.2100,-1.0900,-41.8125,46.8750,51.3125,0.47082519531250,-0.62573242187500,0.50274658203125,0.36608886718750,moving
65.23,3,1,3,0,-0.0200,0.9400,-0.7900,-46.1875,48.4375,53.5000,0.46441650390625,-0.62677001953125,0.50622558593750,0.36767578125000,moving
65.24,3,1,3,0,0.2100,0.7100,-0.6200,-43.7500,47.3750,58.3125,0.45800781250000,-0.62750244140625,0.50994873046875,0.36938476562500,moving
65.25,3,1,3,0,0.5300,0.8000,-0.6400,-40.2500,48.2500,64.5625,0.45153808593750,-0.62774658203125,0.51409912109375,0.37115478515625,moving
65.26,3,1,3,0,0.7200,0.1700,-0.7500,-43.7500,49.5000,68.8125,0.44464111328125,-0.62799072265625,0.51843261718750,0.37310791015625,moving
65.27,3,1,3,0,0.4000,-0.8400,-0.9300,-44.7500,54.7500,70.8125,0.43731689453125,-0.62823486328125,0.52294921875000,0.37487792968750,moving
65.28,3,1,3,0,0.1400,-1.8100,-1.2500,-39.1875,58.9375,70.5625,0.43011474609375,-0.62841796875000,0.52783203125000,0.37609863281250,moving
65.29,3,1,3,0,-0.5600,-4.0400,-1.4100,-36.8750,59.6250,67.1250,0.42309570312500,-0.62866210937500,0.53253173828125,0.37707519531250,moving
65.30,3,1,3,0,-0.7700,-5.3800,-0.2400,-34.9375,57.5625,59.0625,0.41656494140625,-0.62908935546875,0.53674316406250,0.37768554687500,moving
65.31,3,1,3,0,-1.7400,-6.4300,-1.0300,-27.7500,54.3125,44.6250,0.41094970703125,-0.62976074218750,0.54028320312500,0.37762451171875,moving
65.32,3,1,3,0,-1.1300,-7.0900,0.0100,-36.1250,52.0000,31.1875,0.40545654296875,-0.63128662109375,0.54266357421875,0.37756347656250,moving
65.33,3,1,3,0,-1.7300,-6.9200,2.4600,-44.5625,24.6875,20.9375,0.40112304687500,-0.63269042968750,0.54321289062500,0.37908935546875,moving
65.34,3,1,3,0,-1.8800,-5.4900,3.8000,-43.1250,-9.0625,17.1875,0.39862060546875,-0.63311767578125,0.54241943359375,0.38220214843750,moving
65.35,3,1,3,0,-2.5800,-4.8200,5.6900,-28.0625,-32.8750,14.9375,0.39807128906250,-0.63226318359375,0.54119873046875,0.38586425781250,moving
65.36,3,1,3,0,-3.0700,-3.7900,5.2200,-2.5625,-25.2500,14.6875,0.39862060546875,-0.63079833984375,0.54101562500000,0.38787841796875,moving
65.37,3,1,3,0,-3.4100,-1.7300,3.6400,20.1875,-19.3750,12.9375,0.40020751953125,-0.62884521484375,0.54174804687500,0.38842773437500,moving
65.38,3,1,3,0,-2.7700,-1.2800,2.5500,30.9375,-11.9375,10.4375,0.40216064453125,-0.62689208984375,0.54290771484375,0.38800048828125,moving
65.38,3,1,3,0,-2.7700,-1.2800,2.5500,30.9375,-11.9375,10.4375,0.40216064453125,-0.62689208984375,0.54290771484375,0.38800048828125,moving
65.39,3,1,3,0,-2.1200,-1.5900,0.9300,31.0625,3.5000,4.4375,0.40356445312500,-0.62567138671875,0.54431152343750,0.38647460937500,moving
65.40,3,1,3,0,-1.6600,-1.9900,-0.1900,22.4375,7.1250,-5.5000,0.40460205078125,-0.62536621093750,0.54504394531250,0.38482666015625,moving
65.41,3,1,3,0,-1.0000,-3.5200,-0.7300,9.1250,4.7500,-15.7500,0.40545654296875,-0.62597656250000,0.54461669921875,0.38354492187500,moving
65.42,3,1,3,0,-0.7700,-4.3200,-1.0700,-1.9375,14.9375,-25.9375,0.40551757812500,-0.62780761718750,0.54370117187500,0.38189697265625,moving
65.43,3,1,3,0,-0.9700,-4.8600,-0.2700,-1.7500,10.8125,-37.3750,0.40618896484375,-0.63000488281250,0.54193115234375,0.38006591796875,moving
65.44,3,1,3,0,-0.4500,-5.2000,0.4700,1.3750,-2.2500,-47.0625,0.40789794921875,-0.63208007812500,0.53930664062500,0.37847900390625,moving
65.45,3,1,3,0,0.4700,-4.8700,1.1700,12.7500,-14.1875,-52.1250,0.41101074218750,-0.63360595703125,0.53631591796875,0.37677001953125,moving
65.46,3,1,3,0,0.9200,-4.4400,0.7400,27.6875,-16.2500,-53.0625,0.41510009765625,-0.63458251953125,0.53369140625000,0.37445068359375,moving
65.47,3,1,3,0,1.1700,-3.7400,0.0500,39.2500,-10.0625,-52.8750,0.41949462890625,-0.63525390625000,0.53161621093750,0.37121582031250,moving
65.48,3,1,3,0,0.8300,-2.3000,-0.8400,48.2500,-4.1875,-52.2500,0.42407226562500,-0.63580322265625,0.53009033203125,0.36730957031250,moving
65.49,3,1,3,0,0.5300,-1.2500,-1.3800,55.7500,-1.6250,-50.6250,0.42889404296875,-0.63598632812500,0.52899169921875,0.36291503906250,moving
65.50,3,1,3,0,0.0400,-0.3200,-1.4500,59.3750,-6.3750,-50.6250,0.43408203125000,-0.63592529296875,0.52783203125000,0.35858154296875,moving
65.51,3,1,3,0,-0.2800,0.5100,-1.2600,60.1875,-13.5625,-54.4375,0.43975830078125,-0.63568115234375,0.52612304687500,0.35449218750000,moving
65.52,3,1,3,0,-0.6200,2.2200,0.3100,52.6250,-16.8125,-61.4375,0.44537353515625,-0.63598632812500,0.52368164062500,0.35064697265625,moving
65.53,3,1,3,0,-0.2700,3.6400,0.5700,36.7500,-18.6875,-66.7500,0.45031738281250,-0.63702392578125,0.52032470703125,0.34735107421875,moving
65.54,3,1,3,0,0.2800,5.4400,0.4100,28.6250,-21.6875,-63.0625,0.45483398437500,-0.63812255859375,0.51678466796875,0.34478759765625,moving
65.55,3,1,3,0,0.4700,6.9100,-0.1200,37.5000,-23.2500,-51.5000,0.45953369140625,-0.63824462890625,0.51409912109375,0.34228515625000,moving
65.56,3,1,3,0,0.2200,7.4200,-0.6800,45.4375,-14.3125,-39.1250,0.46392822265625,-0.63769531250000,0.51269531250000,0.33947753906250,moving
65.57,3,1,3,0,-0.3700,7.7100,-0.8500,39.7500,-2.5625,-31.7500,0.46716308593750,-0.63745117187500,0.51196289062500,0.33654785156250,moving
65.58,3,1,3,0,-0.5400,8.3000,-0.8900,22.0625,0.1250,-28.1250,0.46923828125000,-0.63781738281250,0.51104736328125,0.33441162109375,moving
65.59,3,1,3,0,-0.7600,8.3900,-0.3600,-0.1250,-9.4375,-21.3750,0.47027587890625,-0.63848876953125,0.50946044921875,0.33404541015625,moving
65.60,3,1,3,0,0.3200,8.2200,-0.8200,-16.9375,-12.5000,-11.7500,0.47021484375000,-0.63934326171875,0.50781250000000,0.33502197265625,moving
65.61,3,1,3,0,0.6400,7.5000,-0.7800,-26.3125,-10.2500,-1.8750,0.46929931640625,-0.64019775390625,0.50653076171875,0.33673095703125,moving
65.62,3,1,3,0,0.7800,6.5200,-0.5100,-32.4375,-7.0000,8.1250,0.46752929687500,-0.64093017578125,0.50573730468750,0.33886718750000,moving
65.63,3,1,3,0,0.7600,5.6600,-0.4300,-35.9375,-6.1875,18.7500,0.46520996093750,-0.64135742187500,0.50549316406250,0.34161376953125,moving
65.64,3,1,3,0,1.0800,4.6800,-0.6700,-37.2500,-6.0625,29.7500,0.46246337890625,-0.64135742187500,0.50579833984375,0.34484863281250,moving
65.64,3,1,3,0,1.0800,4.6800,-0.6700,-37.2500,-6.0625,29.7500,0.46246337890625,-0.64135742187500,0.50579833984375,0.34484863281250,moving
65.65,3,1,3,0,1.1600,4.3000,-1.0700,-34.7500,-3.3125,41.0000,0.45941162109375,-0.64086914062500,0.50695800781250,0.34820556640625,moving
65.66,3,1,3,0,0.9600,3.5700,-1.2700,-33.1875,0.7500,51.2500,0.45593261718750,-0.63989257812500,0.50885009765625,0.35174560546875,moving
65.67,3,1,3,0,0.7000,2.3400,-1.7500,-34.3750,6.8125,58.2500,0.45190429687500,-0.63885498046875,0.51135253906250,0.35522460937500,moving
65.68,3,1,3,0,0.3400,1.7700,-1.7300,-38.0625,15.1250,62.3125,0.44714355468750,-0.63806152343750,0.51422119140625,0.35852050781250,moving
65.69,3,1,3,0,0.1400,1.2300,-1.7500,-43.3125,24.0000,63.6875,0.44158935546875,-0.63757324218750,0.51739501953125,0.36163330078125,moving
65.70,3,1,3,0,0.0400,0.6800,-1.7800,-46.7500,30.1250,64.5625,0.43554687500000,-0.63739013671875,0.52069091796875,0.36456298828125,moving
65.71,3,1,3,0,-0.5500,-0.4600,-2.1500,-45.0625,36.0625,64.1250,0.42932128906250,-0.63732910156250,0.52416992187500,0.36706542968750,moving
65.72,3,1,3,0,-0.5900,-1.1100,-1.4800,-45.6250,41.0625,62.8750,0.42285156250000,-0.63745117187500,0.52777099609375,0.36926269531250,moving
65.73,3,1,3,0,-1.0300,-2.1700,-1.4200,-50.5000,40.0625,57.1250,0.41632080078125,-0.63793945312500,0.53082275390625,0.37145996093750,moving
65.74,3,1,3,0,-0.9100,-3.0100,-0.7900,-57.4375,38.8750,47.0625,0.40972900390625,-0.63909912109375,0.53295898437500,0.37365722656250,moving
65.75,3,1,3,0,-0.5500,-4.4100,0.2800,-64.5625,26.8750,36.5625,0.40368652343750,-0.64056396484375,0.53387451171875,0.37646484375000,moving
65.76,3,1,3,0,-0.4700,-4.9100,0.9100,-70.0625,13.3750,27.8750,0.39819335937500,-0.64215087890625,0.53363037109375,0.38000488281250,moving
65.77,3,1,3,0,-0.3600,-4.9600,1.4000,-73.8125,6.3750,22.5625,0.39294433593750,-0.64385986328125,0.53265380859375,0.38385009765625,moving
65.78,3,1,3,0,-0.0700,-4.8800,1.5100,-67.0000,1.6250,24.2500,0.38824462890625,-0.64501953125000,0.53186035156250,0.38769531250000,moving
65.79,3,1,3,0,-0.3300,-5.6300,1.6600,-49.6250,-3.6875,29.6250,0.38464355468750,-0.64520263671875,0.53173828125000,0.39123535156250,moving
65.80,3,1,3,0,-0.7000,-5.8500,1.2700,-30.5625,-8.0000,33.6875,0.38214111328125,-0.64440917968750,0.53228759765625,0.39422607421875,moving
65.81,3,1,3,0,-1.1000,-6.0600,1.1200,-18.2500,-13.0000,33.9375,0.38049316406250,-0.64294433593750,0.53314208984375,0.39691162109375,moving
65.82,3,1,3,0,-1.4700,-5.9100,0.7900,-6.1875,-11.8750,32.8125,0.37957763671875,-0.64123535156250,0.53436279296875,0.39898681640625,moving
65.83,3,1,3,0,-2.4000,-5.4100,-0.3400,10.3125,-6.0000,28.6875,0.37945556640625,-0.63934326171875,0.53613281250000,0.39978027343750,moving
65.84,3,1,3,0,-2.4000,-5.3500,-0.7600,23.4375,2.1875,20.7500,0.37994384765625,-0.63769531250000,0.53814697265625,0.39923095703125,moving
65.85,3,1,3,0,-2.1200,-5.4300,-0.8000,32.0625,6.8125,9.1250,0.38110351562500,-0.63641357421875,0.54003906250000,0.39764404296875,moving
65.86,3,1,3,0,-1.7700,-5.4000,-0.6900,35.6250,7.8125,-3.9375,0.38287353515625,-0.63568115234375,0.54125976562500,0.39538574218750,moving
65.87,3,1,3,0,-1.1600,-5.3900,-0.1600,35.8125,3.1875,-17.0000,0.38525390625000,-0.63543701171875,0.54168701171875,0.39294433593750,moving
65.88,3,1,3,0,-0.8800,-5.1500,0.3300,37.5625,-5.0625,-28.0625,0.38861083984375,-0.63531494140625,0.54119873046875,0.39050292968750,moving
65.89,3,1,3,0,-0.7900,-5.0300,0.5800,42.8125,-12.5625,-36.0625,0.39282226562500,-0.63513183593750,0.54022216796875,0.38793945312500,moving
65.90,3,1,3,0,-0.8400,-4.9000,0.9100,51.5625,-20.3125,-41.9375,0.39807128906250,-0.63464355468750,0.53894042968750,0.38513183593750,moving
65.91,3,1,3,0,-0.8000,-4.7300,0.7600,60.0625,-26.9375,-47.8125,0.40429687500000,-0.63391113281250,0.53729248046875,0.38214111328125,moving
65.92,3,1,3,0,-0.6300,-4.2700,0.7900,63.0625,-31.3125,-52.8125,0.41101074218750,-0.63311767578125,0.53533935546875,0.37896728515625,moving
65.93,3,1,3,0,-0.5400,-3.5700,0.6800,62.1875,-35.0625,-56.7500,0.41796875000000,-0.63238525390625,0.53295898437500,0.37597656250000,moving
65.93,3,1,3,0,-0.5400,-3.5700,0.6800,62.1875,-35.0625,-56.7500,0.41796875000000,-0.63238525390625,0.53295898437500,0.37597656250000,moving
65.94,3,1,3,0,-0.3400,-2.0800,0.4500,63.0000,-37.5625,-59.8125,0.42523193359375,-0.63159179687500,0.53033447265625,0.37286376953125,moving
65.95,3,1,3,0,-0.2600,-1.1700,0.3400,66.1875,-41.5000,-61.3750,0.43280029296875,-0.63061523437500,0.52752685546875,0.36981201171875,moving
65.96,3,1,3,0,-0.2900,-0.4600,0.2300,67.7500,-44.6250,-62.0625,0.44061279296875,-0.62945556640625,0.52453613281250,0.36676025390625,moving
65.97,3,1,3,0,-0.3400,0.1100,0.2400,65.4375,-45.8750,-64.0000,0.44836425781250,-0.62841796875000,0.52130126953125,0.36376953125000,moving
65.98,3,1,3,0,-0.4700,0.9800,-0.0500,61.3750,-43.0000,-67.3750,0.45581054687500,-0.62768554687500,0.51782226562500,0.36065673828125,moving
65.99,3,1,3,0,-0.5500,1.4400,-0.2400,54.1250,-34.5625,-71.8125,0.46264648437500,-0.62768554687500,0.51416015625000,0.35723876953125,moving
66.00,3,1,3,0,-0.3400,2.2900,-0.4600,49.2500,-29.6250,-74.3750,0.46899414062500,-0.62811279296875,0.51037597656250,0.35357666015625,moving
66.01,3,1,3,0,-0.2400,3.3500,-0.7600,57.6250,-25.4375,-71.0625,0.47552490234375,-0.62811279296875,0.50720214843750,0.34948730468750,moving
66.02,3,1,3,0,-0.1600,4.6400,-0.1600,75.5000,-20.5625,-64.1250,0.48248291015625,-0.62719726562500,0.50506591796875,0.34454345703125,moving
66.03,3,1,3,0,-0.2400,5.1900,0.1700,83.6875,-18.1875,-59.8750,0.48968505859375,-0.62573242187500,0.50354003906250,0.33935546875000,moving
66.04,3,1,3,0,-0.4300,5.8000,-0.0800,74.0000,-15.6250,-60.3750,0.49621582031250,-0.62475585937500,0.50170898437500,0.33435058593750,moving
66.05,3,1,3,0,-0.4600,6.6300,-0.4500,56.1875,-11.7500,-61.7500,0.50158691406250,-0.62463378906250,0.49945068359375,0.32983398437500,moving
66.06,3,1,3,0,0.0700,7.5400,-0.4200,38.1250,-11.1250,-59.4375,0.50585937500000,-0.62524414062500,0.49676513671875,0.32617187500000,moving
66.07,3,1,3,0,0.2100,7.7600,-0.5700,22.6250,-11.7500,-53.5625,0.50915527343750,-0.62622070312500,0.49395751953125,0.32342529296875,moving
66.08,3,1,3,0,0.4200,7.8200,-0.7600,7.3750,-12.1250,-45.5625,0.51135253906250,-0.62750244140625,0.49114990234375,0.32177734375000,moving
66.09,3,1,3,0,0.4200,7.5600,-1.1200,-5.5625,-11.0000,-37.6250,0.51257324218750,-0.62902832031250,0.48840332031250,0.32092285156250,moving
66.10,3,1,3,0,0.3500,7.3400,-1.5200,-19.1250,-7.4375,-29.3750,0.51269531250000,-0.63092041015625,0.48596191406250,0.32086181640625,moving
66.11,3,1,3,0,0.4000,7.1300,-1.9200,-35.4375,-4.1250,-21.8125,0.51153564453125,-0.63330078125000,0.48358154296875,0.32159423828125,moving
66.12,3,1,3,0,0.4600,6.4900,-1.9400,-52.4375,-1.3750,-14.1875,0.50903320312500,-0.63616943359375,0.48126220703125,0.32330322265625,moving
66.13,3,1,3,0,-0.1300,3.9500,-1.8400,-60.5625,4.7500,-7.3125,0.50567626953125,-0.63928222656250,0.47937011718750,0.32525634765625,moving
66.14,3,1,3,0,-0.0800,2.9600,-1.6400,-58.6875,10.9375,1.4375,0.50189208984375,-0.64215087890625,0.47827148437500,0.32720947265625,moving
66.15,3,1,3,0,0.0100,2.3300,-1.5400,-53.1875,14.8750,12.2500,0.49792480468750,-0.64434814453125,0.47808837890625,0.32910156250000,moving
66.16,3,1,3,0,0.0500,1.9700,-1.5100,-46.6250,17.5000,23.6875,0.49383544921875,-0.64587402343750,0.47888183593750,0.33111572265625,moving
66.17,3,1,3,0,0.2100,2.1000,-1.3700,-41.9375,18.9375,35.5000,0.48962402343750,-0.64672851562500,0.48052978515625,0.33337402343750,moving
66.18,3,1,3,0,0.2800,2.6500,-1.3900,-41.5000,18.2500,46.3125,0.48516845703125,-0.64703369140625,0.48272705078125,0.33605957031250,moving
66.19,3,1,3,0,0.4900,3.1100,-1.4500,-41.0000,16.0000,56.0625,0.48046875000000,-0.64691162109375,0.48535156250000,0.33929443359375,moving
66.20,3,1,3,0,0.6000,3.0900,-1.2900,-38.7500,13.3750,64.3750,0.47576904296875,-0.64617919921875,0.48840332031250,0.34289550781250,moving
66.21,3,1,3,0,0.5200,2.6500,-1.0100,-40.3750,14.0625,70.1875,0.47076416015625,-0.64526367187500,0.49176025390625,0.34674072265625,moving
66.22,3,1,3,0,0.4300,2.2800,-0.8100,-50.1875,18.6875,71.7500,0.46490478515625,-0.64477539062500,0.49505615234375,0.35083007812500,moving
66.22,3,1,3,0,0.4300,2.2800,-0.8100,-50.1875,18.6875,71.7500,0.46490478515625,-0.64477539062500,0.49505615234375,0.35083007812500,moving
66.23,3,1,3,0,0.3300,2.1900,-0.4500,-65.3750,22.9375,70.8750,0.45800781250000,-0.64501953125000,0.49798583984375,0.35522460937500,moving
66.24,3,1,3,0,-0.0300,1.8800,-0.1900,-79.3125,24.9375,69.0625,0.45025634765625,-0.64593505859375,0.50042724609375,0.36004638671875,moving
66.25,3,1,3,0,-0.5100,1.2300,0.0500,-87.8125,24.6250,67.0000,0.44207763671875,-0.64715576171875,0.50244140625000,0.36511230468750,moving
66.26,3,1,3,0,-0.5700,0.5200,0.1800,-90.9375,24.3125,65.6875,0.43371582031250,-0.64849853515625,0.50421142578125,0.37030029296875,moving
66.27,3,1,3,0,-0.3800,-0.2800,-0.1700,-90.0625,27.1250,61.9375,0.42535400390625,-0.65002441406250,0.50579833984375,0.37506103515625,moving
66.28,3,1,3,0,-0.1600,-2.4600,-0.1400,-91.1875,30.0625,54.1875,0.41705322265625,-0.65197753906250,0.50701904296875,0.37939453125000,moving
66.29,3,1,3,0,0.0000,-3.6500,-1.1300,-89.4375,33.6875,49.2500,0.40881347656250,-0.65411376953125,0.50811767578125,0.38323974609375,moving
66.30,3,1,3,0,0.3800,-4.6700,-1.0400,-82.3125,38.2500,44.7500,0.40087890625000,-0.65631103515625,0.50927734375000,0.38629150390625,moving
66.31,3,1,3,0,0.5900,-5.4200,-0.5500,-68.6250,30.1875,42.0000,0.39410400390625,-0.65783691406250,0.51043701171875,0.38909912109375,moving
66.32,3,1,3,0,0.8000,-6.6000,0.5800,-62.2500,20.8125,39.4375,0.38824462890625,-0.65893554687500,0.51129150390625,0.39202880859375,moving
66.33,3,1,3,0,0.4400,-6.7900,1.5700,-57.2500,8.8750,36.8750,0.38330078125000,-0.65948486328125,0.51177978515625,0.39532470703125,moving
66.34,3,1,3,0,-0.0100,-6.6000,2.2700,-46.8125,0.9375,35.8125,0.37927246093750,-0.65948486328125,0.51220703125000,0.39855957031250,moving
66.35,3,1,3,0,-0.9200,-6.4600,2.0800,-33.0000,2.6250,36.6250,0.37597656250000,-0.65899658203125,0.51330566406250,0.40112304687500,moving
66.36,3,1,3,0,-2.3900,-6.6500,2.2200,-17.4375,2.7500,36.9375,0.37353515625000,-0.65802001953125,0.51489257812500,0.40295410156250,moving
66.37,3,1,3,0,-2.7300,-6.2000,1.3300,3.3750,1.6250,34.6250,0.37243652343750,-0.65643310546875,0.51702880859375,0.40380859375000,moving
66.38,3,1,3,0,-2.2700,-5.6100,0.6000,21.8125,-6.6875,29.4375,0.37298583984375,-0.65411376953125,0.51928710937500,0.40417480468750,moving
66.39,3,1,3,0,-1.8000,-5.4600,-0.0600,33.6875,-11.6875,24.0000,0.37457275390625,-0.65155029296875,0.52142333984375,0.40405273437500,moving
66.40,3,1,3,0,-0.6300,-5.1200,-1.4600,42.5000,-6.7500,17.9375,0.37670898437500,-0.64910888671875,0.52374267578125,0.40313720703125,moving
66.41,3,1,3,0,-0.2500,-5.1700,-2.1500,49.7500,0.0000,12.2500,0.37908935546875,-0.64691162109375,0.52618408203125,0.40124511718750,moving
66.42,3,1,3,0,0.2500,-5.3400,-1.9000,53.6250,2.5625,6.5625,0.38177490234375,-0.64489746093750,0.52850341796875,0.39880371093750,moving
66.43,3,1,3,0,0.7000,-5.7500,-1.5300,51.6875,8.2500,1.5625,0.38427734375000,-0.64337158203125,0.53063964843750,0.39599609375000,moving
66.44,3,1,3,0,0.9300,-5.6500,-0.7000,44.8750,12.2500,-3.3750,0.38635253906250,-0.64245605468750,0.53234863281250,0.39312744140625,moving
66.45,3,1,3,0,0.7500,-5.5200,-0.3200,40.9375,13.3125,-8.9375,0.38836669921875,-0.64196777343750,0.53369140625000,0.39013671875000,moving
66.46,3,1,3,0,0.4600,-5.4400,0.1000,45.0000,8.6875,-15.6875,0.39105224609375,-0.64147949218750,0.53460693359375,0.38696289062500,moving
66.47,3,1,3,0,-0.1500,-5.1900,0.4200,53.7500,1.6875,-22.6250,0.39477539062500,-0.64080810546875,0.53521728515625,0.38354492187500,moving
66.48,3,1,3,0,-0.3800,-4.5100,0.4400,62.5625,-5.5625,-29.9375,0.39953613281250,-0.63983154296875,0.53540039062500,0.37988281250000,moving
66.48,3,1,3,0,-0.3800,-4.5100,0.4400,62.5625,-5.5625,-29.9375,0.39953613281250,-0.63983154296875,0.53540039062500,0.37988281250000,moving
66.49,3,1,3,0,-0.8000,-3.7600,0.5600,71.1875,-10.9375,-35.0000,0.40521240234375,-0.63861083984375,0.53533935546875,0.37591552734375,moving
66.50,3,1,3,0,-0.9000,-2.9400,0.2700,84.8750,-14.1250,-37.3125,0.41186523437500,-0.63690185546875,0.53552246093750,0.37139892578125,moving
66.51,3,1,3,0,-1.2700,-1.6700,-0.0500,93.8125,-20.6875,-37.5625,0.41931152343750,-0.63464355468750,0.53570556640625,0.36676025390625,moving
66.52,3,1,3,0,-1.4700,-1.2600,-0.1500,95.7500,-31.3750,-39.4375,0.42736816406250,-0.63195800781250,0.53533935546875,0.36248779296875,moving
66.53,3,1,3,0,-1.5900,-0.6600,-0.1300,93.6875,-42.5000,-42.6875,0.43585205078125,-0.62908935546875,0.53430175781250,0.35882568359375,moving
66.54,3,1,3,0,-1.6700,-0.1600,0.0200,88.1875,-52.6250,-46.8750,0.44464111328125,-0.62628173828125,0.53247070312500,0.35577392578125,moving
66.55,3,1,3,0,-1.4800,0.8800,0.9900,82.6250,-61.1875,-50.6250,0.45361328125000,-0.62347412109375,0.52984619140625,0.35327148437500,moving
66.56,3,1,3,0,-1.1600,1.6900,1.3900,81.2500,-65.8750,-52.4375,0.46270751953125,-0.62066650390625,0.52679443359375,0.35095214843750,moving
66.57,3,1,3,0,-0.7600,2.7900,0.9900,82.7500,-61.3125,-51.1875,0.47155761718750,-0.61779785156250,0.52404785156250,0.34838867187500,moving
66.58,3,1,3,0,-0.4600,3.8000,0.6500,85.6875,-50.9375,-50.0625,0.48004150390625,-0.61499023437500,0.52178955078125,0.34509277343750,moving
66.59,3,1,3,0,-0.0700,5.1800,-0.2400,91.6250,-39.3750,-49.0625,0.48828125000000,-0.61218261718750,0.52020263671875,0.34094238281250,moving
66.60,3,1,3,0,0.5000,5.6000,-0.8600,97.5625,-28.1250,-49.3750,0.49621582031250,-0.60937500000000,0.51922607421875,0.33587646484375,moving
66.61,3,1,3,0,0.8500,6.1400,-1.0000,97.4375,-20.0000,-49.8750,0.50378417968750,-0.60681152343750,0.51849365234375,0.33032226562500,moving
66.62,3,1,3,0,0.6600,6.3400,-0.9100,81.1875,-11.0000,-52.0625,0.51007080078125,-0.60528564453125,0.51757812500000,0.32495117187500,moving
66.63,3,1,3,0,0.3200,7.2700,-0.9100,53.8125,-3.1250,-53.2500,0.51458740234375,-0.60516357421875,0.51611328125000,0.32031250000000,moving
66.64,3,1,3,0,0.1500,8.0000,-1.2900,30.2500,2.6250,-50.6250,0.51745605468750,-0.60614013671875,0.51440429687500,0.31652832031250,moving
66.65,3,1,3,0,0.1200,8.5000,-1.7700,12.3750,9.5000,-45.3125,0.51898193359375,-0.60791015625000,0.51275634765625,0.31341552734375,moving
66.66,3,1,3,0,0.1100,8.6400,-1.8600,-2.5625,12.6250,-39.0625,0.51934814453125,-0.61010742187500,0.51116943359375,0.31109619140625,moving
66.67,3,1,3,0,-0.1900,7.6700,-1.8100,-16.6250,13.3125,-33.4375,0.51873779296875,-0.61267089843750,0.50958251953125,0.30963134765625,moving
66.68,3,1,3,0,-0.2300,6.5800,-2.0100,-30.5000,11.0000,-28.8125,0.51739501953125,-0.61566162109375,0.50769042968750,0.30908203125000,moving
66.69,3,1,3,0,-0.1400,5.3000,-1.9100,-41.8750,8.1875,-25.3125,0.51544189453125,-0.61883544921875,0.50555419921875,0.30938720703125,moving
66.70,3,1,3,0,0.2300,4.2000,-1.5200,-48.8750,7.5000,-19.8750,0.51300048828125,-0.62213134765625,0.50354003906250,0.31024169921875,moving
66.71,3,1,3,0,0.2900,4.1500,-1.4300,-52.6250,6.9375,-10.7500,0.51013183593750,-0.62512207031250,0.50183105468750,0.31170654296875,moving
66.72,3,1,3,0,0.1000,4.1500,-1.4500,-53.6875,7.2500,0.5000,0.50683593750000,-0.62768554687500,0.50073242187500,0.31365966796875,moving
66.73,3,1,3,0,-0.2100,4.1900,-1.3900,-53.5000,8.1250,12.1250,0.50317382812500,-0.62976074218750,0.50030517578125,0.31616210937500,moving
66.74,3,1,3,0,-0.1700,4.3100,-1.2400,-53.9375,8.3125,23.0625,0.49920654296875,-0.63128662109375,0.50048828125000,0.31909179687500,moving
66.75,3,1,3,0,-0.2400,4.2000,-1.1500,-56.1250,7.8125,32.3125,0.49481201171875,-0.63250732421875,0.50103759765625,0.32250976562500,moving
66.76,3,1,3,0,-0.3800,4.0300,-1.0300,-58.7500,8.0000,41.2500,0.49005126953125,-0.63348388671875,0.50201416015625,0.32641601562500,moving
66.77,3,1,3,0,-0.4500,3.9400,-1.0300,-61.3125,9.7500,49.9375,0.48474121093750,-0.63415527343750,0.50347900390625,0.33074951171875,moving
66.78,3,1,3,0,-0.7200,3.8300,-0.9500,-65.0625,9.3125,58.1250,0.47900390625000,-0.63458251953125,0.50524902343750,0.33557128906250,moving
66.79,3,1,3,0,-0.7400,3.6400,-0.9500,-69.1875,7.1250,65.5625,0.47290039062500,-0.63476562500000,0.50714111328125,0.34100341796875,moving
66.80,3,1,3,0,-0.9700,3.4200,-0.9700,-72.0000,5.1250,70.2500,0.46655273437500,-0.63470458984375,0.50909423828125,0.34680175781250,moving
66.81,3,1,3,0,-0.9700,3.4200,-0.9700,-72.0000,5.1250,70.2500,0.46655273437500,-0.63470458984375,0.50909423828125,0.34680175781250,moving
66.81,3,1,3,0,-1.2300,3.0500,-1.0300,-77.5625,4.5000,71.5625,0.45983886718750,-0.63476562500000,0.51092529296875,0.35296630859375,moving
66.82,3,1,3,0,-0.9100,1.1900,-0.7600,-83.1875,5.3750,70.3750,0.45275878906250,-0.63513183593750,0.51251220703125,0.35919189453125,moving
66.83,3,1,3,0,-1.1000,0.5300,-1.0500,-85.3750,15.3750,69.5625,0.44506835937500,-0.63580322265625,0.51428222656250,0.36492919921875,moving
66.84,3,1,3,0,-1.2200,-0.4900,-1.0700,-85.1250,23.6875,71.1250,0.43695068359375,-0.63659667968750,0.51641845703125,0.37017822265625,moving
66.85,3,1,3,0,-0.9700,-1.1700,-0.8700,-70.8125,29.7500,74.8750,0.42919921875000,-0.63684082031250,0.51947021484375,0.37463378906250,moving
66.86,3,1,3,0,-0.5700,-2.9400,0.3000,-40.9375,38.0625,79.5625,0.42254638671875,-0.63598632812500,0.52398681640625,0.37738037109375,moving
66.87,3,1,3,0,0.0300,-3.2200,-0.1900,-8.8125,46.3750,82.7500,0.41717529296875,-0.63403320312500,0.53002929687500,0.37823486328125,moving
66.88,3,1,3,0,0.4000,-4.1600,-1.2900,-10.5625,44.6250,78.1250,0.41192626953125,-0.63220214843750,0.53558349609375,0.37915039062500,moving
66.89,3,1,3,0,0.3900,-4.5700,0.5100,-23.3125,33.8750,72.6875,0.40655517578125,-0.63073730468750,0.54010009765625,0.38098144531250,moving
66.90,3,1,3,0,0.3700,-3.2200,-0.1400,-27.7500,38.6250,71.3125,0.40081787109375,-0.62963867187500,0.54443359375000,0.38269042968750,moving
66.91,3,1,3,0,0.1500,-2.5000,-1.7500,-42.6875,37.8125,67.3750,0.39440917968750,-0.62915039062500,0.54803466796875,0.38500976562500,moving
66.92,3,1,3,0,-0.1300,-2.1800,-0.4300,-56.1875,32.0000,62.4375,0.38763427734375,-0.62915039062500,0.55072021484375,0.38812255859375,moving
66.93,3,1,3,0,-0.7300,-3.4000,-0.9400,-63.4375,38.1250,53.4375,0.38049316406250,-0.63000488281250,0.55279541015625,0.39086914062500,moving
66.94,3,1,3,0,-0.9900,-4.1300,-0.3800,-63.3750,36.9375,38.6250,0.37384033203125,-0.63146972656250,0.55395507812500,0.39318847656250,moving
66.95,3,1,3,0,-0.7700,-4.7800,0.2000,-62.5625,33.5000,20.0000,0.36810302734375,-0.63366699218750,0.55401611328125,0.39501953125000,moving
66.96,3,1,3,0,-1.2100,-4.8700,0.9600,-60.9375,15.3750,2.8125,0.36383056640625,-0.63598632812500,0.55255126953125,0.39721679687500,moving
66.97,3,1,3,0,-0.9600,-5.2600,2.4600,-54.4375,-2.6250,-3.8125,0.36108398437500,-0.63781738281250,0.55041503906250,0.39984130859375,moving
66.98,3,1,3,0,-0.2300,-5.2100,3.0500,-34.0000,-15.6250,-2.1250,0.35998535156250,-0.63842773437500,0.54858398437500,0.40228271484375,moving
66.99,3,1,3,0,-0.3300,-5.1100,2.7900,-13.6250,-14.5000,3.2500,0.35980224609375,-0.63818359375000,0.54785156250000,0.40386962890625,moving
67.00,3,1,3,0,0.1500,-4.6200,2.1600,2.6875,-8.4375,10.3125,0.35998535156250,-0.63732910156250,0.54821777343750,0.40454101562500,moving
67.01,3,1,3,0,0.4900,-4.0700,1.2400,16.8125,-8.0000,15.5625,0.36077880859375,-0.63574218750000,0.54943847656250,0.40466308593750,moving
67.02,3,1,3,0,0.7300,-4.1900,0.6700,27.5625,-9.1250,17.8125,0.36212158203125,-0.63372802734375,0.55108642578125,0.40441894531250,moving
67.03,3,1,3,0,0.4200,-4.2500,0.4200,34.9375,-8.6250,18.9375,0.36383056640625,-0.63140869140625,0.55310058593750,0.40380859375000,moving
67.04,3,1,3,0,0.2200,-4.3300,0.2300,37.6250,-1.1250,17.5000,0.36535644531250,-0.62933349609375,0.55535888671875,0.40258789062500,moving
67.05,3,1,3,0,-0.1400,-3.8500,0.2600,36.0000,2.1875,14.8125,0.36669921875000,-0.62750244140625,0.55749511718750,0.40118408203125,stop
67.06,3,1,3,0,-0.1100,-3.5300,0.6600,34.4375,-2.5000,12.5000,0.36828613281250,-0.62573242187500,0.55926513671875,0.40002441406250,stop
67.07,3,1,3,0,-0.1900,-3.5700,1.0600,39.0625,-9.0625,9.4375,0.37054443359375,-0.62371826171875,0.56085205078125,0.39892578125000,stop
67.07,3,1,3,0,-0.1900,-3.5700,1.0600,39.0625,-9.0625,9.4375,0.37054443359375,-0.62371826171875,0.56085205078125,0.39892578125000,stop
67.08,3,1,3,0,-0.1200,-3.2500,1.3500,47.0000,-12.5625,5.6875,0.37359619140625,-0.62145996093750,0.56237792968750,0.39746093750000,stop
67.09,3,1,3,0,-0.4600,-3.0500,1.2000,53.1875,-16.0625,1.0625,0.37719726562500,-0.61914062500000,0.56372070312500,0.39575195312500,stop
67.10,3,1,3,0,-1.0000,-2.6900,0.9200,55.8125,-19.8750,-3.8125,0.38134765625000,-0.61676025390625,0.56475830078125,0.39392089843750,stop
67.11,3,1,3,0,-1.5900,-2.3100,0.5500,59.1250,-26.1875,-9.1250,0.38616943359375,-0.61437988281250,0.56536865234375,0.39208984375000,stop
67.12,3,1,3,0,-2.7500,-1.7500,-0.7600,66.6875,-32.1250,-12.3750,0.39178466796875,-0.61163330078125,0.56591796875000,0.39007568359375,stop
67.13,3,1,3,0,-2.7000,-1.3600,-1.4900,77.3125,-32.8750,-12.3750,0.39801025390625,-0.60845947265625,0.56671142578125,0.38757324218750,stop
67.14,3,1,3,0,-2.5500,-1.2100,-2.0700,86.8125,-34.1250,-9.9375,0.40466308593750,-0.60479736328125,0.56787109375000,0.38476562500000,stop
67.15,3,1,3,0,-2.2000,-1.2900,-2.4600,88.9375,-37.3750,-7.3125,0.41143798828125,-0.60070800781250,0.56909179687500,0.38201904296875,stop
67.16,3,1,3,0,-1.3400,-0.6900,-2.0500,83.1250,-46.9375,-8.0000,0.41845703125000,-0.59655761718750,0.56976318359375,0.38000488281250,stop
67.17,3,1,3,0,-0.7200,-0.4800,-1.1900,71.8750,-56.8750,-11.3750,0.42541503906250,-0.59259033203125,0.56939697265625,0.37896728515625,stop
67.18,3,1,3,0,-0.3300,0.1500,-0.3300,63.8750,-61.4375,-14.6250,0.43225097656250,-0.58892822265625,0.56842041015625,0.37841796875000,stop
67.19,3,1,3,0,-0.1200,0.6400,0.6600,61.4375,-62.4375,-16.7500,0.43908691406250,-0.58538818359375,0.56719970703125,0.37792968750000,stop
67.20,3,1,3,0,-0.3200,1.4200,0.7500,61.1250,-61.3125,-18.0625,0.44586181640625,-0.58190917968750,0.56591796875000,0.37731933593750,stop
67.21,3,1,3,0,-0.3200,1.5900,0.3700,62.9375,-64.6875,-19.2500,0.45288085937500,-0.57824707031250,0.56445312500000,0.37670898437500,stop
67.22,3,1,3,0,-0.2800,1.6900,0.1100,64.3125,-65.8125,-19.2500,0.46002197265625,-0.57452392578125,0.56292724609375,0.37603759765625,stop
67.23,3,1,3,0,0.1500,1.9100,0.0300,61.4375,-60.8750,-20.3125,0.46673583984375,-0.57104492187500,0.56146240234375,0.37524414062500,stop
67.24,3,1,3,0,0.1300,1.7700,-0.3200,54.8125,-52.6250,-24.6875,0.47290039062500,-0.56829833984375,0.55987548828125,0.37414550781250,stop
67.25,3,1,3,0,0.3700,1.8400,-0.4700,45.5625,-47.0000,-28.8750,0.47839355468750,-0.56628417968750,0.55792236328125,0.37304687500000,stop
67.26,3,1,3,0,0.6700,1.9000,-0.5600,36.5625,-38.3750,-33.7500,0.48321533203125,-0.56512451171875,0.55584716796875,0.37176513671875,stop
67.27,3,1,3,0,1.1000,1.8900,-0.7200,29.5000,-31.4375,-37.7500,0.48742675781250,-0.56469726562500,0.55358886718750,0.37023925781250,stop
67.28,3,1,3,0,1.2300,1.8200,-0.7900,25.8750,-27.3750,-38.0625,0.49127197265625,-0.56451416015625,0.55139160156250,0.36871337890625,stop
67.29,3,1,3,0,1.3300,1.6900,-0.9200,27.3125,-26.5000,-34.9375,0.49499511718750,-0.56420898437500,0.54937744140625,0.36718750000000,stop
67.30,3,1,3,0,1.3500,1.5300,-1.0300,34.1250,-27.2500,-29.3750,0.49896240234375,-0.56323242187500,0.54779052734375,0.36566162109375,stop
67.31,3,1,3,0,1.2300,1.1500,-0.9000,39.5625,-26.7500,-22.9375,0.50292968750000,-0.56176757812500,0.54675292968750,0.36407470703125,stop
67.32,3,1,3,0,1.0500,1.0900,-0.8600,41.1250,-25.3750,-17.1250,0.50665283203125,-0.55999755859375,0.54608154296875,0.36254882812500,stop
67.33,3,1,3,0,0.8300,1.0600,-0.6700,40.6250,-23.1875,-12.4375,0.51019287109375,-0.55804443359375,0.54577636718750,0.36120605468750,stop
67.34,3,1,3,0,0.7400,1.0900,-0.6000,39.0625,-20.9375,-8.5625,0.51336669921875,-0.55603027343750,0.54559326171875,0.35998535156250,stop
67.35,3,1,3,0,0.6400,1.1200,-0.3200,37.0000,-21.1250,-5.4375,0.51629638671875,-0.55395507812500,0.54553222656250,0.35900878906250,stop
67.36,3,1,3,0,0.6200,1.2400,-0.2300,34.3125,-22.0625,-3.1250,0.51910400390625,-0.55187988281250,0.54547119140625,0.35827636718750,stop
67.37,3,1,3,0,0.5400,1.3300,-0.2400,31.4375,-23.4375,-1.3750,0.52178955078125,-0.54980468750000,0.54534912109375,0.35784912109375,stop
67.38,3,1,3,0,0.4600,1.4100,-0.2900,28.8750,-25.8750,0.6250,0.52441406250000,-0.54766845703125,0.54510498046875,0.35772705078125,stop
67.39,3,1,3,0,0.1400,1.8000,-0.2800,27.5000,-26.6875,2.8125,0.52691650390625,-0.54541015625000,0.54486083984375,0.35784912109375,stop
67.39,3,1,3,0,0.1400,1.8000,-0.2800,27.5000,-26.6875,2.8125,0.52691650390625,-0.54541015625000,0.54486083984375,0.35784912109375,stop
67.40,3,1,3,0,0.0900,1.9500,-0.1800,25.7500,-27.1875,4.1875,0.52929687500000,-0.54315185546875,0.54461669921875,0.35809326171875,stop
67.41,3,1,3,0,0.0300,2.1600,-0.1300,22.6250,-24.5000,4.8750,0.53137207031250,-0.54113769531250,0.54437255859375,0.35839843750000,stop
67.42,3,1,3,0,-0.0100,2.2600,-0.2200,16.9375,-20.8750,3.5000,0.53302001953125,-0.53955078125000,0.54412841796875,0.35876464843750,stop
67.43,3,1,3,0,0.2200,1.9600,-0.3600,9.9375,-18.6250,2.5000,0.53430175781250,-0.53833007812500,0.54370117187500,0.35925292968750,stop
67.44,3,1,3,0,0.1300,1.8000,-0.4300,2.8750,-17.0000,2.1250,0.53521728515625,-0.53759765625000,0.54309082031250,0.36004638671875,stop
67.45,3,1,3,0,0.0100,1.5700,-0.5200,-2.0625,-14.0625,1.4375,0.53570556640625,-0.53717041015625,0.54241943359375,0.36083984375000,stop
67.46,3,1,3,0,-0.0200,1.3500,-0.5600,-4.7500,-11.2500,1.0000,0.53601074218750,-0.53698730468750,0.54180908203125,0.36169433593750,stop
67.47,3,1,3,0,0.1400,1.1100,-0.3000,-5.1250,-7.7500,1.7500,0.53607177734375,-0.53686523437500,0.54138183593750,0.36236572265625,stop
67.48,3,1,3,0,0.2600,1.0100,-0.2500,-4.6875,-6.0625,2.7500,0.53601074218750,-0.53674316406250,0.54107666015625,0.36303710937500,stop
67.49,3,1,3,0,0.3800,0.8900,-0.1800,-4.3125,-6.1875,4.2500,0.53594970703125,-0.53656005859375,0.54089355468750,0.36370849609375,stop
67.50,3,1,3,0,0.5100,0.8600,-0.1000,-4.6875,-6.3125,5.8125,0.53582763671875,-0.53631591796875,0.54071044921875,0.36450195312500,stop
67.51,3,1,3,0,0.3800,0.8000,-0.1800,-5.6875,-4.5000,7.1250,0.53558349609375,-0.53607177734375,0.54064941406250,0.36535644531250,stop
67.52,3,1,3,0,0.2600,0.7400,-0.2300,-8.2500,-1.1875,6.8750,0.53497314453125,-0.53613281250000,0.54064941406250,0.36614990234375,stop
67.53,3,1,3,0,0.1000,0.6700,-0.2100,-10.3750,1.2500,6.1875,0.53424072265625,-0.53631591796875,0.54071044921875,0.36682128906250,stop
67.54,3,1,3,0,0.0000,0.4600,-0.1700,-11.6875,2.3750,5.9375,0.53338623046875,-0.53668212890625,0.54071044921875,0.36755371093750,stop
67.55,3,1,3,0,-0.0200,0.4600,-0.3900,-13.5000,3.1875,5.1875,0.53240966796875,-0.53717041015625,0.54071044921875,0.36828613281250,stop
67.56,3,1,3,0,0.0500,0.2100,-0.2900,-16.0000,5.6875,4.8125,0.53125000000000,-0.53784179687500,0.54064941406250,0.36901855468750,stop
67.57,3,1,3,0,0.0600,0.0000,-0.2200,-15.3750,8.0000,4.5000,0.52996826171875,-0.53857421875000,0.54077148437500,0.36956787109375,stop
67.58,3,1,3,0,0.1400,-0.3100,-0.2100,-16.0625,7.1250,3.8750,0.52874755859375,-0.53936767578125,0.54077148437500,0.37017822265625,stop
67.59,3,1,3,0,0.2200,-0.4200,-0.1600,-15.8750,6.5000,4.0000,0.52752685546875,-0.54016113281250,0.54077148437500,0.37084960937500,stop
67.60,3,1,3,0,0.2700,-0.4700,-0.1100,-13.6250,5.1875,4.9375,0.52648925781250,-0.54071044921875,0.54077148437500,0.37145996093750,stop
67.61,3,1,3,0,0.3300,-0.4700,-0.0900,-10.6875,3.8125,6.4375,0.52557373046875,-0.54101562500000,0.54095458984375,0.37213134765625,stop
67.62,3,1,3,0,0.4300,-0.6900,-0.1300,-7.1875,2.7500,7.6875,0.52484130859375,-0.54107666015625,0.54119873046875,0.37268066406250,stop
67.63,3,1,3,0,0.3900,-0.7100,-0.1500,-5.2500,1.7500,8.5000,0.52423095703125,-0.54095458984375,0.54150390625000,0.37322998046875,stop
67.64,3,1,3,0,0.3400,-0.6700,-0.1500,-3.9375,0.9375,9.0625,0.52368164062500,-0.54071044921875,0.54187011718750,0.37377929687500,stop
67.65,3,1,3,0,0.2800,-0.5800,-0.1800,-2.1875,0.7500,9.5000,0.52325439453125,-0.54040527343750,0.54229736328125,0.37426757812500,stop
67.66,3,1,3,0,0.2700,-0.2600,-0.0600,-1.1250,0.5000,9.3750,0.52288818359375,-0.53997802734375,0.54272460937500,0.37475585937500,stop
67.67,3,1,3,0,0.3200,-0.0600,-0.0600,-0.4375,-0.2500,9.2500,0.52258300781250,-0.53955078125000,0.54315185546875,0.37518310546875,stop
67.68,3,1,3,0,0.0800,0.0300,0.1000,-1.2500,0.6250,8.0000,0.52221679687500,-0.53924560546875,0.54351806640625,0.37561035156250,stop
67.69,3,1,3,0,0.1500,0.2500,0.0800,-2.6250,2.6250,5.8125,0.52172851562500,-0.53918457031250,0.54382324218750,0.37585449218750,stop
67.70,3,1,3,0,0.1500,0.2900,0.0000,-5.0625,3.1875,4.0000,0.52124023437500,-0.53936767578125,0.54400634765625,0.37615966796875,stop
67.71,3,1,3,0,0.1000,0.3000,0.0000,-8.0000,4.5000,2.4375,0.52056884765625,-0.53973388671875,0.54406738281250,0.37640380859375,stop
67.72,3,1,3,0,0.0300,0.2300,-0.0300,-9.9375,6.2500,1.1875,0.51971435546875,-0.54034423828125,0.54406738281250,0.37664794921875,stop
67.73,3,1,3,0,-0.1400,0.0600,-0.0900,-11.6250,7.6250,0.1875,0.51879882812500,-0.54113769531250,0.54406738281250,0.37683105468750,stop
67.74,3,1,3,0,-0.2100,-0.0400,-0.0600,-12.6875,8.9375,-0.5000,0.51776123046875,-0.54199218750000,0.54406738281250,0.37701416015625,stop
67.75,3,1,3,0,-0.2800,-0.1300,0.0000,-13.2500,10.0625,-1.0625,0.51672363281250,-0.54296875000000,0.54400634765625,0.37713623046875,stop
67.76,3,1,3,0,-0.3000,-0.2100,0.0000,-13.3125,9.7500,-1.6875,0.51568603515625,-0.54394531250000,0.54394531250000,0.37725830078125,stop
67.77,3,1,3,0,-0.3700,-0.3600,0.0500,-12.0000,8.2500,-1.2500,0.51470947265625,-0.54486083984375,0.54388427734375,0.37738037109375,stop
67.78,3,1,3,0,-0.3700,-0.3900,0.1000,-9.8750,6.6875,-1.1250,0.51397705078125,-0.54553222656250,0.54382324218750,0.37744140625000,stop
67.79,3,1,3,0,-0.2700,-0.4100,0.1400,-7.8750,4.2500,-0.6875,0.51342773437500,-0.54608154296875,0.54370117187500,0.37762451171875,stop
67.80,3,1,3,0,-0.1100,-0.3600,0.1200,-5.8750,1.7500,0.0000,0.51306152343750,-0.54638671875000,0.54357910156250,0.37780761718750,stop
67.81,3,1,3,0,0.0900,-0.2400,0.0400,-3.7500,0.0000,0.9375,0.51281738281250,-0.54650878906250,0.54351806640625,0.37805175781250,stop
67.82,3,1,3,0,0.1500,-0.2000,-0.0300,-2.6250,-0.9375,1.4375,0.51269531250000,-0.54656982421875,0.54345703125000,0.37823486328125,stop
67.83,3,1,3,0,0.2200,-0.1100,-0.0700,-2.5000,-1.3750,1.6250,0.51257324218750,-0.54650878906250,0.54339599609375,0.37854003906250,stop
67.84,3,1,3,0,0.2800,-0.0800,-0.0700,-2.5000,-1.3750,1.6250,0.51245117187500,-0.54650878906250,0.54333496093750,0.37878417968750,stop
67.85,3,1,3,0,0.2800,-0.1200,-0.0600,-2.6250,-0.9375,1.4375,0.51232910156250,-0.54650878906250,0.54327392578125,0.37902832031250,stop
67.86,3,1,3,0,0.3100,-0.1600,-0.0600,-2.7500,-0.2500,1.6250,0.51214599609375,-0.54656982421875,0.54327392578125,0.37921142578125,stop
67.87,3,1,3,0,0.2900,-0.1700,-0.0800,-2.6250,1.9375,1.3125,0.51190185546875,-0.54669189453125,0.54333496093750,0.37933349609375,stop
67.88,3,1,3,0,0.2700,-0.2000,-0.0800,-2.6250,1.9375,1.3125,0.51159667968750,-0.54687500000000,0.54339599609375,0.37933349609375,stop
67.89,3,1,3,0,0.2000,-0.1900,-0.0300,-2.2500,3.0000,1.4375,0.51135253906250,-0.54711914062500,0.54345703125000,0.37927246093750,stop
67.90,3,1,3,0,0.1700,-0.2000,-0.0100,-1.8125,3.8125,1.6250,0.51104736328125,-0.54730224609375,0.54364013671875,0.37915039062500,stop
67.91,3,1,3,0,0.1400,-0.1500,0.0200,-1.2500,4.0625,1.8750,0.51074218750000,-0.54742431640625,0.54382324218750,0.37908935546875,stop
67.92,3,1,3,0,0.0900,-0.1100,0.0400,-0.5000,3.6875,2.0625,0.51049804687500,-0.54748535156250,0.54406738281250,0.37896728515625,stop
67.93,3,1,3,0,0.0900,-0.1000,0.0600,-0.5000,3.6875,2.0625,0.51031494140625,-0.54748535156250,0.54437255859375,0.37884521484375,stop
67.94,3,1,3,0,0.0700,-0.0700,0.0400,0.0000,3.1250,2.0625,0.51007080078125,-0.54754638671875,0.54455566406250,0.37878417968750,stop
67.95,3,1,3,0,0.0800,-0.0400,0.0500,0.1875,2.7500,2.0000,0.50988769531250,-0.54754638671875,0.54479980468750,0.37872314453125,stop
67.96,3,1,3,0,0.0600,0.0000,0.0600,0.2500,2.8125,1.9375,0.50970458984375,-0.54754638671875,0.54498291015625,0.37866210937500,stop
67.97,3,1,3,0,0.0600,0.0300,0.0800,0.0625,3.0000,1.8750,0.50946044921875,-0.54754638671875,0.54522705078125,0.37860107421875,stop
67.98,3,1,3,0,0.0500,0.1000,0.1000,-0.2500,3.2500,1.6250,0.50927734375000,-0.54754638671875,0.54547119140625,0.37854003906250,stop
67.99,3,1,3,0,-0.0400,0.0900,0.0700,-0.1250,3.5000,1.9375,0.50903320312500,-0.54754638671875,0.54571533203125,0.37847900390625,stop
68.00,3,1,3,0,-0.1500,0.1000,0.1700,-0.3750,3.3125,1.9375,0.50885009765625,-0.54754638671875,0.54595947265625,0.37841796875000,stop
68.01,3,1,3,0,-0.1900,0.1100,0.1900,-0.8750,2.5000,2.1250,0.50860595703125,-0.54754638671875,0.54614257812500,0.37847900390625,stop
68.02,3,1,3,0,-0.1700,0.0500,0.2300,-0.8125,2.0625,2.1875,0.50842285156250,-0.54748535156250,0.54626464843750,0.37860107421875,stop
68.03,3,1,3,0,-0.1400,0.0600,0.2200,-0.6875,1.1250,1.7500,0.50830078125000,-0.54742431640625,0.54638671875000,0.37872314453125,stop
68.04,3,1,3,0,-0.1500,0.0500,0.1600,-0.3750,0.6875,1.6250,0.50823974609375,-0.54730224609375,0.54644775390625,0.37884521484375,stop
68.05,3,1,3,0,-0.1100,0.0400,0.1100,-0.0625,0.3750,1.5000,0.50823974609375,-0.54718017578125,0.54650878906250,0.37890625000000,stop
68.06,3,1,3,0,-0.0900,0.0500,0.0800,0.0000,0.2500,1.1875,0.50823974609375,-0.54711914062500,0.54656982421875,0.37902832031250,stop
68.07,3,1,3,0,-0.0200,0.0600,0.0800,-0.1875,0.0000,1.0000,0.50817871093750,-0.54705810546875,0.54663085937500,0.37908935546875,stop
68.08,3,1,3,0,-0.0100,0.0800,0.0700,-0.3125,0.3125,0.8750,0.50817871093750,-0.54699707031250,0.54663085937500,0.37915039062500,stop
68.09,3,1,3,0,-0.0100,0.0600,0.0700,-0.0625,0.3750,1.1250,0.50811767578125,-0.54693603515625,0.54669189453125,0.37921142578125,stop
68.10,3,1,3,0,0.0000,0.0300,0.1400,-0.1250,0.2500,1.3125,0.50805664062500,-0.54687500000000,0.54675292968750,0.37927246093750,stop
68.11,3,1,3,0,0.0100,0.0100,0.1300,-0.2500,0.0000,1.5000,0.50805664062500,-0.54675292968750,0.54681396484375,0.37939453125000,stop
68.12,3,1,3,0,0.0500,0.0400,0.1000,-0.5625,-0.0625,1.3750,0.50799560546875,-0.54669189453125,0.54687500000000,0.37945556640625,stop
68.13,3,1,3,0,0.0300,0.0700,0.0900,-0.4375,-0.6250,1.1250,0.50799560546875,-0.54663085937500,0.54687500000000,0.37957763671875,stop
68.14,3,1,3,0,0.0400,0.0900,0.0400,-0.6250,-0.6250,1.3750,0.50793457031250,-0.54656982421875,0.54693603515625,0.37969970703125,stop
68.15,3,1,3,0,0.0900,0.0800,0.0200,-0.4375,-0.8750,1.3750,0.50793457031250,-0.54644775390625,0.54693603515625,0.37982177734375,stop
68.16,3,1,3,0,0.0900,0.0700,0.0000,-0.7500,-1.0000,1.3750,0.50787353515625,-0.54638671875000,0.54693603515625,0.38000488281250,stop
68.17,3,1,3,0,0.0800,0.0800,0.0200,-1.0000,-0.6875,1.3125,0.50781250000000,-0.54632568359375,0.54693603515625,0.38012695312500,stop
68.18,3,1,3,0,0.0900,0.0200,0.0400,-1.0625,-1.0000,1.3125,0.50775146484375,-0.54626464843750,0.54693603515625,0.38031005859375,stop
68.19,3,1,3,0,0.0300,0.0400,0.0700,-1.2500,-0.9375,1.1250,0.50769042968750,-0.54626464843750,0.54687500000000,0.38043212890625,stop
68.20,3,1,3,0,0.0200,0.0600,0.0600,-1.1875,-0.6250,1.0000,0.50762939453125,-0.54620361328125,0.54687500000000,0.38061523437500,stop
68.21,3,1,3,0,0.0500,0.0800,0.0400,-1.0000,-0.8125,1.0625,0.50762939453125,-0.54614257812500,0.54687500000000,0.38073730468750,stop
68.22,3,1,3,0,0.0400,0.1000,0.0400,-0.8750,-0.6250,1.0625,0.50756835937500,-0.54614257812500,0.54687500000000,0.38085937500000,stop
68.23,3,1,3,0,0.0500,0.0900,0.0100,-0.8750,-0.5625,0.9375,0.50750732421875,-0.54608154296875,0.54687500000000,0.38098144531250,stop
68.24,3,1,3,0,0.0700,0.0600,0.0200,-1.3125,-0.9375,1.0625,0.50744628906250,-0.54608154296875,0.54681396484375,0.38116455078125,stop
68.25,3,1,3,0,0.0900,0.0300,0.0000,-1.3125,-0.6250,1.0000,0.50738525390625,-0.54602050781250,0.54681396484375,0.38134765625000,stop
68.26,3,1,3,0,0.0900,0.0000,-0.0200,-1.5625,-0.7500,0.9375,0.50732421875000,-0.54602050781250,0.54675292968750,0.38146972656250,stop
68.27,3,1,3,0,0.0400,-0.0300,0.0000,-1.7500,-0.5000,0.8125,0.50720214843750,-0.54608154296875,0.54675292968750,0.38159179687500,stop
68.28,3,1,3,0,0.0200,-0.0500,0.0300,-1.7500,0.0000,0.6250,0.50708007812500,-0.54614257812500,0.54669189453125,0.38171386718750,stop
68.29,3,1,3,0,0.0500,-0.0300,0.0000,-1.4375,0.0000,0.5000,0.50701904296875,-0.54620361328125,0.54669189453125,0.38177490234375,stop
68.30,3,1,3,0,0.1200,-0.0200,-0.0600,-1.0000,-0.1250,0.3125,0.50695800781250,-0.54626464843750,0.54663085937500,0.38183593750000,stop
68.31,3,1,3,0,0.0900,-0.0300,-0.0500,-0.6250,-0.2500,0.4375,0.50695800781250,-0.54626464843750,0.54663085937500,0.38183593750000,stop
68.32,3,1,3,0,0.0600,-0.0500,0.0000,-0.5000,-0.1250,0.5625,0.50689697265625,-0.54626464843750,0.54663085937500,0.38189697265625,stop
68.33,3,1,3,0,0.0200,-0.0300,0.0100,-0.8750,0.0000,0.3750,0.50689697265625,-0.54626464843750,0.54663085937500,0.38195800781250,stop
68.34,3,1,3,0,0.0000,-0.0800,0.0300,-0.8750,-0.1250,0.5000,0.50683593750000,-0.54632568359375,0.54656982421875,0.38195800781250,stop
68.35,3,1,3,0,0.0000,-0.0600,0.0600,-0.3750,-0.5625,0.5625,0.50683593750000,-0.54626464843750,0.54656982421875,0.38201904296875,stop
68.36,3,1,3,0,0.0000,-0.0400,0.0700,0.3125,-0.9375,0.6875,0.50689697265625,-0.54620361328125,0.54656982421875,0.38208007812500,stop
68.37,3,1,3,0,-0.0100,-0.0200,0.0000,0.9375,-1.1250,0.6250,0.50695800781250,-0.54608154296875,0.54656982421875,0.38214111328125,stop
68.38,3,1,3,0,-0.0200,-0.0100,-0.0800,1.2500,-0.6875,0.5625,0.50701904296875,-0.54602050781250,0.54663085937500,0.38214111328125,stop
68.39,3,1,3,0,0.0000,-0.0100,-0.0200,1.0000,-0.3125,0.3750,0.50708007812500,-0.54595947265625,0.54663085937500,0.38208007812500,stop
68.40,3,1,3,0,0.0400,-0.0500,-0.0200,1.0000,0.0000,0.1875,0.50714111328125,-0.54589843750000,0.54669189453125,0.38201904296875,stop
68.41,3,1,3,0,0.0600,-0.0400,-0.0200,1.0000,-0.0625,0.2500,0.50720214843750,-0.54583740234375,0.54669189453125,0.38195800781250,stop
68.42,3,1,3,0,0.0800,-0.0100,-0.0400,1.0000,-0.3750,0.2500,0.50720214843750,-0.54583740234375,0.54675292968750,0.38195800781250,stop
68.43,3,1,3,0,0.1000,-0.0200,-0.0300,1.5000,-0.3750,0.2500,0.50732421875000,-0.54577636718750,0.54681396484375,0.38183593750000,stop
68.44,3,1,3,0,0.1300,-0.0600,-0.0400,1.5000,-0.5625,0.3750,0.50738525390625,-0.54565429687500,0.54681396484375,0.38177490234375,stop
68.45,3,1,3,0,0.1300,-0.0600,-0.0500,1.3750,-0.4375,0.3750,0.50744628906250,-0.54559326171875,0.54687500000000,0.38171386718750,stop
68.46,3,1,3,0,0.1000,-0.0400,0.0000,1.4375,-0.1875,0.4375,0.50750732421875,-0.54559326171875,0.54693603515625,0.38165283203125,stop
