timestamp,calib_mag,calib_accel,calib_gyro,calib_sys,lacc_x,lacc_y,lacc_z,gyro_x,gyro_y,gyro_z,quat_w,quat_x,quat_y,quat_z
1721764454.76,0,0,0,0,0.0000,0.0000,0.0000,0.0000,0.0000,0.0000,0.00000000000000,0.00000000000000,0.00000000000000,0.00000000000000
1721764454.79,0,0,0,0,0.0000,0.0000,0.0000,0.0000,-0.2500,0.0000,0.00000000000000,0.00000000000000,0.00000000000000,0.00000000000000
1721764454.80,0,0,0,0,0.0000,0.0000,0.0000,0.1875,-0.3750,0.0000,0.00000000000000,0.00000000000000,0.00000000000000,0.00000000000000
1721764454.81,0,0,0,0,0.0000,0.0000,0.0000,-0.1875,0.1875,0.0000,0.00000000000000,0.00000000000000,0.00000000000000,0.00000000000000
1721764454.82,0,0,0,0,0.0000,0.0000,0.0000,0.0000,0.0000,0.0000,0.00000000000000,0.00000000000000,0.00000000000000,0.00000000000000
1721764454.83,0,0,0,0,-1.1000,0.1300,-0.4700,0.1250,-0.3750,-0.1250,1.00000000000000,0.00000000000000,0.00000000000000,0.00000000000000
1721764454.84,0,0,0,0,-1.0800,0.1200,-0.5200,0.0000,0.3125,0.0000,1.00000000000000,0.00000000000000,0.00000000000000,0.00000000000000
1721764454.84,0,0,0,0,-1.0900,0.1200,-0.5600,-0.1250,0.2500,0.0000,1.00000000000000,0.00000000000000,0.00006103515625,0.00000000000000
1721764454.85,0,0,0,0,-1.0900,0.1100,-0.5200,0.1250,-0.3125,0.0000,1.00000000000000,0.00000000000000,0.00006103515625,0.00000000000000
1721764454.86,0,0,0,0,-1.1000,0.1300,-0.4800,0.0000,0.0000,-0.0625,1.00000000000000,0.00000000000000,0.00006103515625,0.00000000000000
1721764454.88,0,0,0,0,0.0500,0.0000,-0.4600,-0.1250,0.1875,-0.0625,0.99829101562500,0.00689697265625,0.05853271484375,0.00000000000000
1721764454.89,0,0,0,0,0.0500,-0.0100,-0.4600,0.0625,0.0000,0.0000,0.99829101562500,0.00689697265625,0.05853271484375,0.00000000000000
1721764454.90,0,0,0,0,0.0400,0.0000,-0.4100,0.0000,-0.3125,0.0000,0.99829101562500,0.00689697265625,0.05853271484375,0.00000000000000
1721764454.91,0,0,0,0,0.0600,-0.0200,-0.4300,-0.1875,0.4375,-0.1250,0.99829101562500,0.00689697265625,0.05853271484375,0.00000000000000
1721764454.92,0,0,0,0,0.0300,-0.0300,-0.4200,0.0000,-0.0625,0.1250,0.99822998046875,0.00689697265625,0.05853271484375,0.00000000000000
1721764454.93,0,0,0,0,0.0600,0.0000,-0.3600,0.2500,-0.5625,-0.0625,0.99829101562500,0.00689697265625,0.05853271484375,0.00000000000000
1721764454.93,0,0,0,0,0.0400,0.0000,-0.4200,0.0000,0.6250,0.0000,0.99822998046875,0.00689697265625,0.05859375000000,0.00000000000000
1721764454.94,0,0,0,0,0.0500,-0.0200,-0.5200,-0.2500,0.1875,0.0000,0.99822998046875,0.00689697265625,0.05859375000000,0.00000000000000
1721764454.96,0,0,0,0,0.0700,0.0000,-0.3900,0.4375,-0.8125,-0.0625,0.99829101562500,0.00689697265625,0.05853271484375,0.00000000000000
1721764454.97,0,0,0,0,0.0400,0.0000,-0.3900,0.0000,0.0000,0.0000,0.99829101562500,0.00689697265625,0.05853271484375,0.00000000000000
1721764454.98,0,0,0,0,0.0400,0.0100,-0.4900,-0.3750,0.8125,-0.1250,0.99822998046875,0.00689697265625,0.05859375000000,0.00000000000000
1721764454.99,0,0,0,0,0.0500,0.0000,-0.4100,0.3125,-0.3750,-0.1250,0.99822998046875,0.00689697265625,0.05865478515625,0.00000000000000
1721764455.00,0,0,0,0,0.0500,0.0100,-0.3900,0.1875,-0.6250,0.0000,0.99822998046875,0.00689697265625,0.05859375000000,0.00000000000000
1721764455.01,0,0,0,0,0.0400,-0.0100,-0.4500,-0.3125,0.6875,0.0000,0.99822998046875,0.00689697265625,0.05865478515625,0.00000000000000
1721764455.01,0,0,0,0,0.0400,0.0000,-0.5200,0.0000,0.2500,-0.0625,0.99822998046875,0.00695800781250,0.05865478515625,0.00000000000000
1721764455.02,0,0,0,0,0.0700,0.0000,-0.4000,0.3750,-0.7500,-0.0625,0.99822998046875,0.00695800781250,0.05859375000000,0.00000000000000
1721764455.03,0,0,0,0,0.0700,0.0000,-0.4300,-0.0625,0.1250,0.0000,0.99822998046875,0.00695800781250,0.05859375000000,0.00000000000000
1721764455.05,0,0,0,0,0.0600,0.0000,-0.4900,-0.2500,0.3750,0.0000,0.99822998046875,0.00695800781250,0.05859375000000,0.00000000000000
1721764455.06,0,0,0,0,0.0500,0.0000,-0.4500,0.2500,-0.6250,0.0625,0.99822998046875,0.00695800781250,0.05859375000000,0.00000000000000
1721764455.07,0,0,0,0,0.0400,-0.0200,-0.4200,0.0625,-0.2500,0.0000,0.99822998046875,0.00695800781250,0.05859375000000,0.00000000000000
1721764455.08,0,0,0,0,0.0500,0.0000,-0.4700,-0.2500,0.5000,0.0000,0.99822998046875,0.00695800781250,0.05859375000000,0.00000000000000
1721764455.09,0,0,0,0,0.0500,0.0000,-0.4900,0.0000,0.0000,-0.0625,0.99822998046875,0.00695800781250,0.05859375000000,0.00000000000000
1721764455.09,0,0,0,0,0.0700,0.0000,-0.4200,0.1875,-0.5625,0.0000,0.99829101562500,0.00695800781250,0.05853271484375,0.00000000000000
1721764455.10,0,0,0,0,0.0400,0.0000,-0.4300,-0.1875,0.0625,0.0000,0.99829101562500,0.00695800781250,0.05853271484375,0.00000000000000
1721764455.11,0,0,0,0,0.0400,0.0000,-0.4700,-0.0625,0.1250,0.0000,0.99822998046875,0.00695800781250,0.05853271484375,0.00000000000000
1721764455.13,0,0,0,0,0.0700,0.0000,-0.4200,0.1250,-0.0625,-0.0625,0.99822998046875,0.00695800781250,0.05853271484375,0.00000000000000
1721764455.14,0,0,0,0,0.0500,0.0000,-0.4400,0.0000,0.1250,0.0000,0.99822998046875,0.00695800781250,0.05859375000000,0.00000000000000
1721764455.15,0,0,0,0,0.0500,-0.0200,-0.4700,0.0000,0.0625,0.0000,0.99822998046875,0.00695800781250,0.05859375000000,0.00000000000000
1721764455.16,0,0,0,0,0.0600,-0.0100,-0.4300,0.1250,-0.2500,0.0000,0.99822998046875,0.00695800781250,0.05859375000000,0.00000000000000
1721764455.17,0,0,0,0,0.0500,-0.0300,-0.4000,0.0625,0.0000,0.0000,0.99822998046875,0.00695800781250,0.05859375000000,0.00000000000000
1721764455.18,0,0,0,0,0.0500,0.0200,-0.4600,0.0000,0.2500,0.0000,0.99822998046875,0.00695800781250,0.05859375000000,0.00000000000000
1721764455.18,0,0,0,0,0.0600,-0.0100,-0.4300,0.0000,-0.1875,0.0000,0.99822998046875,0.00695800781250,0.05859375000000,0.00000000000000
1721764455.19,0,0,0,0,0.0600,0.0000,-0.4100,0.0625,-0.3125,0.0000,0.99822998046875,0.00695800781250,0.05859375000000,0.00000000000000
1721764455.21,0,0,0,0,0.0600,-0.0100,-0.4300,-0.1875,0.3125,0.0000,0.99822998046875,0.00695800781250,0.05859375000000,0.00000000000000
1721764455.22,0,0,0,0,0.0400,0.0100,-0.4600,0.0000,0.0625,-0.0625,0.99822998046875,0.00695800781250,0.05859375000000,0.00000000000000
1721764455.23,0,0,0,0,0.0600,-0.0100,-0.4100,0.1250,-0.4375,0.0000,0.99822998046875,0.00695800781250,0.05859375000000,0.00000000000000
1721764455.24,0,0,0,0,0.0400,0.0100,-0.3800,0.0000,0.0000,0.0000,0.99822998046875,0.00695800781250,0.05859375000000,0.00000000000000
1721764455.25,0,0,0,0,0.0700,-0.0100,-0.4500,-0.2500,0.5000,0.0000,0.99822998046875,0.00695800781250,0.05865478515625,0.00000000000000
1721764455.26,0,0,0,0,0.0400,-0.0100,-0.4300,0.0000,-0.1875,-0.0625,0.99822998046875,0.00695800781250,0.05865478515625,0.00000000000000
1721764455.26,0,0,0,0,0.0500,0.0100,-0.4100,0.1250,-0.0625,0.0000,0.99822998046875,0.00695800781250,0.05865478515625,0.00000000000000
1721764455.27,0,0,0,0,0.0400,-0.0200,-0.4600,-0.0625,0.2500,-0.0625,0.99822998046875,0.00695800781250,0.05865478515625,0.00000000000000
1721764455.29,0,0,0,0,0.0400,0.0100,-0.4800,-0.0625,0.1250,0.0000,0.99822998046875,0.00695800781250,0.05865478515625,0.00000000000000
1721764455.30,0,0,0,0,0.0600,0.0000,-0.3800,0.1250,-0.4375,-0.0625,0.99822998046875,0.00695800781250,0.05865478515625,0.00000000000000
1721764455.31,0,0,0,0,0.0700,0.0100,-0.4300,0.0000,0.1875,0.0000,0.99822998046875,0.00695800781250,0.05865478515625,0.00000000000000
1721764455.32,0,0,0,0,0.0500,0.0000,-0.4500,-0.1875,0.3125,0.0000,0.99822998046875,0.00695800781250,0.05865478515625,0.00000000000000
1721764455.33,0,0,0,0,0.0500,0.0000,-0.4800,0.1250,-0.4375,0.0000,0.99822998046875,0.00695800781250,0.05865478515625,0.00000000000000
1721764455.34,0,0,0,0,0.0500,0.0000,-0.4300,0.0000,0.0000,-0.1250,0.99822998046875,0.00695800781250,0.05865478515625,0.00000000000000
1721764455.34,0,0,0,0,0.0500,0.0000,-0.4400,-0.0625,0.3750,0.0000,0.99822998046875,0.00695800781250,0.05865478515625,0.00000000000000
1721764455.35,0,0,0,0,0.0600,0.0000,-0.4400,0.1250,-0.1875,0.0000,0.99822998046875,0.00695800781250,0.05865478515625,0.00000000000000
1721764455.37,0,0,0,0,0.0700,-0.0100,-0.4100,0.0625,-0.1875,-0.0625,0.99822998046875,0.00695800781250,0.05865478515625,0.00000000000000
1721764455.38,0,0,0,0,0.0400,0.0100,-0.4400,-0.1250,0.3750,0.0000,0.99822998046875,0.00695800781250,0.05865478515625,0.00000000000000
1721764455.39,0,0,0,0,0.0500,0.0000,-0.4600,-0.1250,0.2500,0.0000,0.99822998046875,0.00695800781250,0.05871582031250,0.00000000000000
1721764455.40,0,0,0,0,0.0600,0.0000,-0.4500,0.1875,-0.3125,0.0000,0.99822998046875,0.00695800781250,0.05871582031250,0.00000000000000
1721764455.41,0,0,0,0,0.0600,0.0000,-0.4300,0.0000,-0.1250,0.0000,0.99822998046875,0.00695800781250,0.05871582031250,0.00000000000000
1721764455.42,0,0,0,0,0.0600,0.0000,-0.4400,0.0000,0.2500,-0.0625,0.99822998046875,0.00695800781250,0.05871582031250,0.00000000000000
1721764455.43,0,0,0,0,0.0600,0.0000,-0.4400,0.0000,-0.1875,0.0000,0.99822998046875,0.00695800781250,0.05871582031250,0.00000000000000
1721764455.43,0,0,0,0,0.0700,0.0000,-0.4600,0.0000,-0.1875,0.0000,0.99822998046875,0.00695800781250,0.05871582031250,0.00000000000000
1721764455.44,0,0,0,0,0.0400,0.0000,-0.4400,-0.1250,0.1250,0.0000,0.99822998046875,0.00695800781250,0.05871582031250,0.00000000000000
1721764455.46,0,0,0,0,0.0500,0.0000,-0.4300,0.0000,-0.1250,0.0000,0.99822998046875,0.00695800781250,0.05871582031250,0.00000000000000
1721764455.47,0,0,0,0,0.0700,0.0000,-0.4400,0.0000,-0.0625,0.0000,0.99822998046875,0.00695800781250,0.05871582031250,0.00000000000000
1721764455.48,0,0,0,0,0.0600,-0.0200,-0.4600,-0.0625,0.0000,0.0000,0.99822998046875,0.00695800781250,0.05871582031250,0.00000000000000
1721764455.49,0,0,0,0,0.0600,-0.0100,-0.4100,0.0625,0.0000,-0.1250,0.99822998046875,0.00695800781250,0.05871582031250,0.00000000000000
1721764455.50,0,0,0,0,0.0600,-0.0100,-0.3900,0.0000,-0.0625,0.0000,0.99822998046875,0.00695800781250,0.05871582031250,0.00000000000000
1721764455.51,0,0,0,0,0.0600,-0.0100,-0.4500,0.0000,0.0625,0.0625,0.99822998046875,0.00695800781250,0.05871582031250,0.00000000000000
1721764455.51,0,0,0,0,0.0400,0.0000,-0.4200,0.0000,0.0000,0.0000,0.99822998046875,0.00695800781250,0.05871582031250,0.00000000000000
1721764455.52,0,0,0,0,0.0600,-0.0100,-0.4500,0.1250,-0.1250,0.0000,0.99822998046875,0.00695800781250,0.05871582031250,0.00000000000000
1721764455.54,0,0,0,0,0.0900,-0.0100,-0.4700,-0.0625,0.0625,0.0000,0.99822998046875,0.00695800781250,0.05871582031250,0.00000000000000
1721764455.55,0,0,0,0,0.0500,-0.0100,-0.4500,0.0000,-0.0625,0.0000,0.99822998046875,0.00695800781250,0.05871582031250,0.00000000000000
1721764455.56,0,0,0,0,0.0600,0.0000,-0.4400,0.0625,-0.1875,0.0000,0.99822998046875,0.00695800781250,0.05871582031250,0.00000000000000
1721764455.57,0,0,0,0,0.0600,0.0000,-0.4400,-0.0625,0.0000,0.0625,0.99822998046875,0.00695800781250,0.05871582031250,0.00000000000000
1721764455.58,0,0,0,0,0.0500,-0.0200,-0.4300,0.0000,-0.0625,0.0000,0.99822998046875,0.00695800781250,0.05871582031250,0.00000000000000
1721764455.59,0,0,0,0,0.0600,0.0000,-0.4500,0.1250,-0.0625,0.0000,0.99822998046875,0.00695800781250,0.05871582031250,0.00000000000000
1721764455.59,0,0,0,0,0.0600,-0.0100,-0.4300,-0.2500,0.0000,0.0000,0.99822998046875,0.00695800781250,0.05871582031250,0.00000000000000
1721764455.61,0,0,0,0,0.0400,-0.0200,-0.4300,0.0000,0.0000,-0.0625,0.99822998046875,0.00695800781250,0.05871582031250,0.00000000000000
1721764455.62,0,0,0,0,0.0500,-0.0100,-0.4300,0.0000,0.0000,0.0000,0.99822998046875,0.00695800781250,0.05871582031250,0.00000000000000
1721764455.63,0,0,0,0,0.0600,-0.0200,-0.4200,0.0000,0.0000,0.0000,0.99822998046875,0.00695800781250,0.05877685546875,0.00000000000000
1721764455.64,0,0,0,0,0.0700,0.0000,-0.4900,0.0625,0.0625,0.0000,0.99822998046875,0.00695800781250,0.05877685546875,0.00000000000000
1721764455.65,0,0,0,0,0.0600,0.0000,-0.4400,0.0000,-0.1250,0.0000,0.99822998046875,0.00695800781250,0.05877685546875,0.00000000000000
1721764455.66,0,0,0,0,0.0500,-0.0200,-0.4300,0.0000,0.0000,0.0000,0.99822998046875,0.00695800781250,0.05877685546875,0.00000000000000
1721764455.67,0,0,0,0,0.0500,0.0100,-0.4600,0.0000,0.0000,0.0000,0.99822998046875,0.00695800781250,0.05877685546875,0.00000000000000
1721764455.68,0,0,0,0,0.0500,0.0000,-0.4600,0.0000,0.0000,0.0000,0.99822998046875,0.00695800781250,0.05877685546875,0.00000000000000
1721764455.68,0,0,0,0,0.0800,0.0000,-0.4200,0.0000,-0.0625,0.0000,0.99822998046875,0.00695800781250,0.05877685546875,0.00000000000000
1721764455.70,0,0,0,0,0.0800,-0.0100,-0.4200,0.0625,-0.0625,0.0000,0.99822998046875,0.00695800781250,0.05877685546875,0.00000000000000
1721764455.71,0,0,0,0,0.0700,0.0000,-0.4400,0.0000,0.0000,0.0000,0.99822998046875,0.00695800781250,0.05877685546875,0.00000000000000
1721764455.72,0,0,0,0,0.0500,-0.0200,-0.4100,0.0625,0.0000,0.0000,0.99822998046875,0.00695800781250,0.05877685546875,0.00000000000000
1721764455.73,0,0,0,0,0.0600,0.0000,-0.4400,0.0625,0.0000,0.0000,0.99822998046875,0.00695800781250,0.05877685546875,0.00000000000000
1721764455.74,0,0,0,0,0.0400,0.0000,-0.4600,0.0000,0.0000,0.0000,0.99822998046875,0.00695800781250,0.05877685546875,0.00000000000000
1721764455.75,0,0,0,0,0.0400,0.0000,-0.4500,0.0000,0.0625,0.0000,0.99822998046875,0.00695800781250,0.05877685546875,0.00000000000000
1721764455.76,0,0,0,0,0.0500,0.0000,-0.4000,-0.0625,-0.1250,0.0000,0.99822998046875,0.00695800781250,0.05877685546875,0.00000000000000
1721764455.76,0,0,0,0,0.0700,-0.0100,-0.4400,-0.0625,0.1250,0.0000,0.99822998046875,0.00695800781250,0.05877685546875,0.00000000000000
1721764455.77,0,0,0,0,0.0600,0.0000,-0.4500,-0.0625,0.1250,0.0000,0.99822998046875,0.00695800781250,0.05877685546875,0.00000000000000
1721764455.79,0,0,0,0,0.0600,0.0000,-0.4300,0.0000,0.0625,0.0000,0.99822998046875,0.00695800781250,0.05877685546875,0.00000000000000
1721764455.80,0,0,0,0,0.0700,0.0000,-0.4400,0.1250,0.0000,0.0000,0.99822998046875,0.00695800781250,0.05877685546875,0.00000000000000
1721764455.81,0,0,0,0,0.0500,-0.0100,-0.4500,-0.1875,0.1250,0.0000,0.99822998046875,0.00695800781250,0.05877685546875,0.00000000000000
1721764455.82,0,0,0,0,0.0700,0.0000,-0.4400,-0.0625,0.0000,-0.0625,0.99822998046875,0.00695800781250,0.05877685546875,0.00000000000000
1721764455.83,0,0,0,0,0.0500,-0.0100,-0.4500,0.0000,-0.1875,0.0000,0.99822998046875,0.00695800781250,0.05877685546875,0.00000000000000
1721764455.84,0,0,0,0,0.0300,0.0000,-0.4700,0.0000,0.0000,0.0000,0.99822998046875,0.00695800781250,0.05877685546875,0.00000000000000
1721764455.84,0,0,0,0,0.0500,0.0000,-0.4500,0.0000,0.1875,0.0000,0.99822998046875,0.00695800781250,0.05877685546875,0.00000000000000
1721764455.86,0,0,0,0,0.0600,0.0000,-0.4200,0.0000,-0.0625,0.0000,0.99822998046875,0.00695800781250,0.05877685546875,0.00000000000000
1721764455.87,0,0,1,0,0.0600,-0.0100,-0.4600,0.0000,-0.1875,0.0000,0.99822998046875,0.00695800781250,0.05877685546875,0.00000000000000
1721764455.88,0,0,1,0,0.0300,0.0000,-0.4300,-0.0625,0.1875,0.0000,0.99822998046875,0.00695800781250,0.05877685546875,0.00000000000000
1721764455.89,0,0,1,0,0.0500,0.0200,-0.4500,0.0000,0.0000,-0.0625,0.99822998046875,0.00695800781250,0.05877685546875,0.00000000000000
1721764455.90,0,0,1,0,0.0800,0.0000,-0.4200,0.0000,0.0000,0.0000,0.99822998046875,0.00695800781250,0.05877685546875,0.00000000000000
1721764455.91,0,0,1,0,0.0500,-0.0100,-0.4800,0.0000,0.1250,0.0000,0.99822998046875,0.00695800781250,0.05877685546875,0.00000000000000
1721764455.92,0,0,1,0,0.0700,0.0200,-0.4100,0.0000,0.0000,0.0000,0.99822998046875,0.00695800781250,0.05877685546875,0.00000000000000
1721764455.93,0,0,1,0,0.0700,0.0000,-0.4200,0.0625,0.0000,0.0000,0.99822998046875,0.00695800781250,0.05877685546875,0.00000000000000
1721764455.93,0,0,1,0,0.0500,-0.0200,-0.4600,-0.1250,0.0000,0.0000,0.99822998046875,0.00695800781250,0.05877685546875,0.00000000000000
1721764455.95,0,0,1,0,0.0400,0.0000,-0.4300,0.0000,0.1875,0.0625,0.99822998046875,0.00695800781250,0.05877685546875,0.00000000000000
1721764455.96,0,0,1,0,0.0400,-0.0100,-0.4200,0.0000,0.0000,0.0000,0.99822998046875,0.00695800781250,0.05877685546875,0.00000000000000
1721764455.97,0,0,1,0,0.0500,0.0000,-0.4200,0.0000,0.0000,0.0000,0.99822998046875,0.00695800781250,0.05877685546875,0.00000000000000
1721764455.98,0,0,1,0,0.0400,0.0000,-0.4400,-0.0625,0.1250,0.0000,0.99822998046875,0.00695800781250,0.05877685546875,0.00000000000000
1721764455.99,0,0,1,0,0.0600,0.0000,-0.4400,0.0000,0.0000,0.0000,0.99822998046875,0.00695800781250,0.05877685546875,0.00000000000000
1721764456.00,0,0,1,0,0.0500,0.0000,-0.4300,0.0000,-0.0625,0.0000,0.99822998046875,0.00695800781250,0.05877685546875,0.00000000000000
1721764456.01,0,0,1,0,0.0600,0.0000,-0.4400,0.0000,0.0000,0.0000,0.99822998046875,0.00695800781250,0.05877685546875,0.00000000000000
1721764456.01,0,0,1,0,0.0600,0.0000,-0.4300,0.0000,-0.1875,0.0000,0.99822998046875,0.00695800781250,0.05877685546875,0.00000000000000
1721764456.03,0,0,1,0,0.0500,-0.0100,-0.4300,0.0000,0.0000,0.0000,0.99822998046875,0.00695800781250,0.05877685546875,0.00000000000000
1721764456.04,0,0,1,0,0.0700,-0.0200,-0.4500,0.0000,0.1250,0.0000,0.99822998046875,0.00695800781250,0.05877685546875,0.00000000000000
1721764456.05,0,0,1,0,0.0500,-0.0100,-0.4200,-0.0625,0.0000,0.0000,0.99822998046875,0.00695800781250,0.05877685546875,0.00000000000000
1721764456.06,0,0,1,0,0.0500,0.0000,-0.4500,0.0000,-0.0625,-0.0625,0.99822998046875,0.00695800781250,0.05877685546875,0.00000000000000
1721764456.07,0,0,1,0,0.0600,0.0100,-0.4300,0.0000,0.0000,0.0000,0.99822998046875,0.00695800781250,0.05877685546875,0.00000000000000
1721764456.08,0,0,1,0,0.0600,-0.0100,-0.4400,-0.0625,0.0000,0.0625,0.99822998046875,0.00695800781250,0.05877685546875,0.00000000000000
1721764456.09,0,0,1,0,0.0700,0.0000,-0.4600,0.0000,-0.0625,0.0000,0.99822998046875,0.00695800781250,0.05877685546875,0.00000000000000
1721764456.09,0,0,1,0,0.0500,0.0000,-0.4300,0.0000,-0.1250,0.0000,0.99822998046875,0.00695800781250,0.05877685546875,0.00000000000000
1721764456.11,0,0,1,0,0.0600,0.0000,-0.4300,0.0000,0.0625,-0.0625,0.99822998046875,0.00695800781250,0.05877685546875,0.00000000000000
1721764456.12,0,0,1,0,0.0600,0.0100,-0.4500,0.0000,-0.0625,0.0000,0.99822998046875,0.00695800781250,0.05877685546875,0.00000000000000
1721764456.13,0,0,1,0,0.0400,-0.0100,-0.4400,0.0000,0.0000,0.0000,0.99822998046875,0.00695800781250,0.05877685546875,0.00000000000000
1721764456.14,0,0,1,0,0.0800,-0.0200,-0.4600,0.0000,0.1250,0.0000,0.99822998046875,0.00695800781250,0.05877685546875,0.00000000000000
1721764456.15,0,0,1,0,0.0600,-0.0100,-0.4300,0.0000,0.0625,-0.0625,0.99822998046875,0.00695800781250,0.05877685546875,0.00000000000000
1721764456.16,0,0,1,0,0.0700,0.0000,-0.4100,0.0625,0.0000,0.0000,0.99822998046875,0.00695800781250,0.05877685546875,0.00000000000000
1721764456.17,0,0,1,0,0.0700,-0.0300,-0.4300,0.0000,-0.0625,0.0000,0.99822998046875,0.00695800781250,0.05877685546875,0.00000000000000
1721764456.18,0,0,1,0,0.0500,0.0200,-0.4300,-0.0625,-0.0625,0.0000,0.99822998046875,0.00695800781250,0.05877685546875,0.00000000000000
1721764456.18,0,0,1,0,0.0600,0.0000,-0.4500,0.0000,0.0000,-0.0625,0.99822998046875,0.00695800781250,0.05877685546875,0.00000000000000
1721764456.20,0,0,1,0,0.0600,-0.0100,-0.4400,0.0000,0.0000,0.0000,0.99822998046875,0.00695800781250,0.05877685546875,0.00000000000000
1721764456.21,0,0,1,0,0.0600,0.0000,-0.4100,0.0000,0.0625,0.0000,0.99822998046875,0.00695800781250,0.05877685546875,0.00000000000000
1721764456.22,0,0,1,0,0.0400,0.0000,-0.4200,0.0000,0.0000,0.1250,0.99822998046875,0.00695800781250,0.05877685546875,0.00000000000000
1721764456.23,0,0,1,0,0.0500,-0.0200,-0.4400,0.0000,0.0000,0.0625,0.99822998046875,0.00695800781250,0.05877685546875,0.00000000000000
1721764456.24,0,0,1,0,0.0500,0.0100,-0.4400,0.0000,-0.0625,0.0000,0.99822998046875,0.00695800781250,0.05877685546875,0.00000000000000
1721764456.25,0,0,1,0,0.0500,0.0000,-0.4600,0.0625,0.0000,0.0000,0.99822998046875,0.00695800781250,0.05877685546875,0.00000000000000
1721764456.26,0,0,1,0,0.0600,-0.0300,-0.4300,0.0000,0.0000,0.0000,0.99822998046875,0.00695800781250,0.05877685546875,0.00000000000000
1721764456.26,0,0,1,0,0.0600,-0.0200,-0.4100,0.0000,0.0000,0.0000,0.99822998046875,0.00695800781250,0.05877685546875,0.00000000000000
1721764456.28,0,0,1,0,0.0400,-0.0100,-0.4100,0.0625,0.0000,0.0000,0.99822998046875,0.00695800781250,0.05877685546875,0.00000000000000
1721764456.29,0,0,1,0,0.0600,0.0000,-0.4500,0.0000,0.1250,0.0000,0.99822998046875,0.00695800781250,0.05877685546875,0.00000000000000
1721764456.30,0,0,1,0,0.0600,-0.0100,-0.4400,0.0000,0.0000,0.0000,0.99822998046875,0.00695800781250,0.05877685546875,0.00000000000000
1721764456.31,0,0,1,0,0.0500,0.0100,-0.4300,0.0000,-0.1250,0.0000,0.99822998046875,0.00695800781250,0.05877685546875,0.00000000000000
1721764456.32,0,0,1,0,0.0600,0.0000,-0.4400,0.0000,-0.1250,0.0000,0.99822998046875,0.00695800781250,0.05877685546875,0.00000000000000
1721764456.33,0,0,1,0,0.0400,0.0100,-0.4600,0.0000,0.0625,0.0000,0.99822998046875,0.00695800781250,0.05877685546875,0.00000000000000
1721764456.34,0,0,1,0,0.0600,0.0100,-0.4300,0.0000,0.0000,0.0000,0.99822998046875,0.00695800781250,0.05877685546875,0.00000000000000
1721764456.34,0,0,1,0,0.0600,0.0100,-0.4300,0.0000,-0.1875,0.0000,0.99822998046875,0.00695800781250,0.05877685546875,0.00000000000000
1721764456.36,0,0,1,0,0.0700,0.0000,-0.4500,0.0000,0.0000,0.0000,0.99822998046875,0.00695800781250,0.05877685546875,0.00000000000000
1721764456.37,0,0,2,0,0.0500,0.0000,-0.4300,0.0000,0.0000,0.0000,0.99822998046875,0.00695800781250,0.05877685546875,0.00000000000000
1721764456.38,0,0,2,0,0.0800,-0.0200,-0.4200,0.0000,0.0000,0.0000,0.99822998046875,0.00695800781250,0.05877685546875,0.00000000000000
1721764456.39,0,0,2,0,0.0600,-0.0400,-0.4400,0.0000,0.0625,-0.0625,0.99822998046875,0.00695800781250,0.05877685546875,0.00000000000000
1721764456.40,0,0,2,0,0.0600,0.0000,-0.4400,0.0625,-0.0625,0.0000,0.99822998046875,0.00695800781250,0.05877685546875,0.00000000000000
1721764456.41,0,0,2,0,0.0500,0.0000,-0.4700,0.0000,0.0625,0.0000,0.99822998046875,0.00695800781250,0.05877685546875,0.00000000000000
1721764456.42,0,0,2,0,0.0700,0.0000,-0.4300,0.0000,0.0625,0.0000,0.99822998046875,0.00695800781250,0.05877685546875,0.00000000000000
1721764456.43,0,0,2,0,0.0500,-0.0100,-0.4100,0.0000,0.0000,0.0000,0.99822998046875,0.00695800781250,0.05877685546875,0.00000000000000
1721764456.43,0,0,2,0,0.0500,0.0000,-0.4200,0.0000,-0.1875,0.0000,0.99822998046875,0.00695800781250,0.05877685546875,0.00000000000000
1721764456.45,0,0,2,0,0.0400,-0.0200,-0.4700,0.0000,0.0625,-0.0625,0.99822998046875,0.00695800781250,0.05877685546875,0.00000000000000
1721764456.46,0,0,2,0,0.0600,-0.0100,-0.4500,-0.1250,0.1250,-0.0625,0.99822998046875,0.00695800781250,0.05877685546875,0.00000000000000
1721764456.47,0,0,2,0,0.0800,-0.0100,-0.4200,0.0000,0.0000,0.0000,0.99822998046875,0.00695800781250,0.05877685546875,0.00000000000000
1721764456.48,0,0,2,0,0.0600,-0.0200,-0.4500,0.0000,0.0000,0.0000,0.99822998046875,0.00695800781250,0.05877685546875,0.00000000000000
1721764456.49,0,0,2,0,0.0500,-0.0300,-0.4600,0.0000,0.0000,-0.0625,0.99822998046875,0.00695800781250,0.05877685546875,0.00000000000000
1721764456.50,0,0,2,0,0.0600,0.0000,-0.4500,0.0000,-0.1250,-0.0625,0.99822998046875,0.00695800781250,0.05877685546875,0.00000000000000
1721764456.51,0,0,2,0,0.0600,0.0000,-0.4100,0.0000,0.0000,0.0000,0.99822998046875,0.00695800781250,0.05877685546875,0.00000000000000
1721764456.51,0,0,2,0,0.0400,0.0000,-0.4300,0.0000,0.1875,0.0000,0.99822998046875,0.00695800781250,0.05877685546875,0.00000000000000
1721764456.53,0,0,2,0,0.0600,0.0100,-0.4300,0.0000,0.0000,0.0000,0.99822998046875,0.00695800781250,0.05877685546875,0.00000000000000
1721764456.54,0,0,2,0,0.0400,0.0100,-0.4500,-0.0625,0.0000,0.0000,0.99822998046875,0.00695800781250,0.05877685546875,0.00000000000000
1721764456.55,0,0,2,0,0.0600,0.0000,-0.4400,0.0000,0.1250,0.0625,0.99822998046875,0.00695800781250,0.05877685546875,0.00000000000000
1721764456.56,0,0,2,0,0.0500,-0.0200,-0.4100,0.0000,0.0625,0.0000,0.99822998046875,0.00695800781250,0.05877685546875,0.00000000000000
1721764456.57,0,0,2,0,0.0500,-0.0100,-0.4500,0.0000,0.0000,0.0000,0.99822998046875,0.00695800781250,0.05877685546875,0.00000000000000
1721764456.58,0,0,2,0,0.0700,0.0000,-0.4400,0.0000,0.1250,0.0000,0.99822998046875,0.00695800781250,0.05877685546875,0.00000000000000
1721764456.59,0,0,2,0,0.0700,-0.0100,-0.4100,0.0000,0.0000,0.0000,0.99822998046875,0.00695800781250,0.05877685546875,0.00000000000000
1721764456.59,0,0,2,0,0.0700,0.0000,-0.4200,0.0000,0.1875,0.0000,0.99822998046875,0.00695800781250,0.05877685546875,0.00000000000000
1721764456.61,0,0,2,0,0.0500,0.0000,-0.4100,0.0000,-0.0625,-0.0625,0.99822998046875,0.00695800781250,0.05877685546875,0.00000000000000
1721764456.62,0,0,2,0,0.0600,0.0000,-0.4500,0.0000,0.0000,0.0000,0.99822998046875,0.00695800781250,0.05877685546875,0.00000000000000
1721764456.63,0,0,2,0,0.0500,-0.0100,-0.4500,0.1250,0.0000,0.0000,0.99822998046875,0.00695800781250,0.05877685546875,0.00000000000000
1721764456.64,0,0,2,0,0.0700,0.0000,-0.4700,0.0000,-0.0625,0.0625,0.99822998046875,0.00695800781250,0.05877685546875,0.00000000000000
1721764456.65,0,0,2,0,0.0700,-0.0100,-0.4500,0.0000,0.0000,0.0000,0.99822998046875,0.00695800781250,0.05877685546875,0.00000000000000
1721764456.66,0,0,2,0,0.0600,0.0000,-0.4400,-0.0625,0.0000,0.0000,0.99822998046875,0.00695800781250,0.05877685546875,0.00000000000000
1721764456.67,0,0,2,0,0.0600,-0.0300,-0.4400,0.0000,0.0000,-0.0625,0.99822998046875,0.00695800781250,0.05877685546875,0.00000000000000
1721764456.68,0,0,2,0,0.0600,-0.0200,-0.4100,0.0000,0.0000,-0.0625,0.99822998046875,0.00695800781250,0.05877685546875,0.00000000000000
1721764456.69,0,0,2,0,0.0700,-0.0200,-0.4700,0.0000,0.0000,0.0000,0.99822998046875,0.00695800781250,0.05877685546875,0.00000000000000
1721764456.70,0,0,2,0,0.0500,-0.0400,-0.4300,0.0000,0.0000,0.0000,0.99822998046875,0.00695800781250,0.05877685546875,0.00000000000000
1721764456.71,0,0,2,0,0.0600,-0.0200,-0.4400,0.0000,0.0000,0.0000,0.99822998046875,0.00695800781250,0.05877685546875,0.00000000000000
1721764456.72,0,0,2,0,0.0400,-0.0100,-0.4500,0.0000,0.0625,0.0000,0.99822998046875,0.00695800781250,0.05877685546875,0.00000000000000
1721764456.73,0,0,2,0,0.0600,0.0000,-0.4500,0.0000,0.0625,0.0000,0.99822998046875,0.00695800781250,0.05877685546875,0.00000000000000
1721764456.74,0,0,2,0,0.0700,0.0100,-0.4300,0.0000,-0.0625,0.0000,0.99822998046875,0.00695800781250,0.05877685546875,0.00000000000000
1721764456.75,0,0,2,0,0.0600,0.0000,-0.4600,0.0625,-0.0625,-0.0625,0.99822998046875,0.00695800781250,0.05877685546875,0.00000000000000
1721764456.76,0,0,2,0,0.0600,-0.0100,-0.4300,-0.0625,0.0625,0.0000,0.99822998046875,0.00695800781250,0.05877685546875,0.00000000000000
1721764456.76,0,0,2,0,0.0900,-0.0200,-0.4600,0.0000,0.0000,0.0000,0.99822998046875,0.00695800781250,0.05877685546875,0.00000000000000
1721764456.78,0,0,2,0,0.0400,-0.0100,-0.4100,0.0000,0.0000,0.0000,0.99822998046875,0.00695800781250,0.05877685546875,0.00000000000000
1721764456.79,0,0,2,0,0.0500,-0.0100,-0.4500,0.0000,0.1250,-0.0625,0.99822998046875,0.00695800781250,0.05877685546875,0.00000000000000
1721764456.80,0,0,2,0,0.0500,0.0000,-0.4600,0.0000,0.1250,0.0000,0.99822998046875,0.00695800781250,0.05877685546875,0.00000000000000
1721764456.81,0,0,2,0,0.0500,-0.0200,-0.4600,0.0625,0.0000,0.1250,0.99822998046875,0.00695800781250,0.05877685546875,0.00000000000000
1721764456.82,0,0,2,0,0.0600,0.0000,-0.4100,0.0000,0.0000,0.0000,0.99822998046875,0.00695800781250,0.05877685546875,0.00000000000000
1721764456.83,0,0,2,0,0.0700,0.0100,-0.4400,0.0000,0.0000,0.0000,0.99822998046875,0.00695800781250,0.05877685546875,0.00000000000000
1721764456.84,0,0,2,0,0.0500,0.0000,-0.4300,0.0000,0.0625,0.0000,0.99822998046875,0.00695800781250,0.05877685546875,0.00000000000000
1721764456.84,0,0,2,0,0.0500,0.0000,-0.4400,-0.0625,0.0000,0.0000,0.99822998046875,0.00695800781250,0.05877685546875,0.00000000000000
1721764456.86,0,0,2,0,0.0600,0.0000,-0.4200,0.0625,-0.0625,0.0000,0.99822998046875,0.00695800781250,0.05877685546875,0.00000000000000
1721764456.87,0,0,3,0,0.0600,-0.0200,-0.4400,0.0000,0.0000,0.0000,0.99822998046875,0.00695800781250,0.05877685546875,0.00000000000000
1721764456.88,0,0,3,0,0.0400,-0.0200,-0.4400,0.0000,0.0000,0.0000,0.99822998046875,0.00695800781250,0.05877685546875,0.00000000000000
1721764456.89,0,0,3,0,0.0600,-0.0100,-0.4100,0.0000,-0.1875,0.0000,0.99822998046875,0.00695800781250,0.05877685546875,0.00000000000000
1721764456.90,0,0,3,0,0.0700,-0.0100,-0.4500,0.0000,0.0000,0.0000,0.99822998046875,0.00695800781250,0.05877685546875,0.00000000000000
1721764456.91,0,0,3,0,0.0700,-0.0100,-0.4200,0.0000,0.2500,0.0000,0.99822998046875,0.00695800781250,0.05877685546875,0.00000000000000
1721764456.92,0,0,3,0,0.0600,-0.0200,-0.4300,0.0000,0.0000,0.0000,0.99822998046875,0.00695800781250,0.05877685546875,0.00000000000000
1721764456.93,0,0,3,0,0.0500,-0.0200,-0.4200,0.0000,0.0000,0.0000,0.99822998046875,0.00695800781250,0.05877685546875,0.00000000000000
1721764456.94,0,0,3,0,0.0600,0.0100,-0.4400,0.0000,0.0000,0.0000,0.99822998046875,0.00695800781250,0.05877685546875,0.00000000000000
1721764456.95,0,0,3,0,0.0700,0.0000,-0.4200,0.0000,-0.1875,0.0000,0.99822998046875,0.00695800781250,0.05877685546875,0.00000000000000
1721764456.96,0,0,3,0,0.0700,0.0000,-0.4200,0.0000,0.0000,0.0000,0.99822998046875,0.00695800781250,0.05877685546875,0.00000000000000
1721764456.97,0,0,3,0,0.0600,0.0000,-0.4300,0.0000,0.0000,0.0000,0.99822998046875,0.00695800781250,0.05877685546875,0.00000000000000
1721764456.98,0,0,3,0,0.0600,-0.0200,-0.4200,0.0000,-0.0625,0.0000,0.99822998046875,0.00695800781250,0.05877685546875,0.00000000000000
1721764456.99,0,0,3,0,0.0600,-0.0100,-0.4800,0.0000,0.0000,0.0000,0.99822998046875,0.00695800781250,0.05877685546875,0.00000000000000
1721764457.00,0,0,3,0,0.0800,-0.0200,-0.4500,-0.0625,0.0000,0.0000,0.99822998046875,0.00695800781250,0.05877685546875,0.00000000000000
1721764457.01,0,0,3,0,0.0600,-0.0100,-0.4300,0.0625,-0.1250,0.0000,0.99822998046875,0.00695800781250,0.05877685546875,0.00000000000000
1721764457.02,0,0,3,0,0.0500,-0.0200,-0.4300,0.0000,0.0625,0.0625,0.99822998046875,0.00695800781250,0.05877685546875,0.00000000000000
1721764457.03,0,0,3,0,0.0500,0.0000,-0.4400,0.0000,0.0625,-0.1250,0.99822998046875,0.00695800781250,0.05877685546875,0.00000000000000
1721764457.04,0,0,3,0,0.0500,0.0000,-0.4300,0.0000,0.0000,0.0000,0.99822998046875,0.00695800781250,0.05877685546875,0.00000000000000
1721764457.05,0,0,3,0,0.0600,0.0100,-0.4300,0.0000,-0.1250,0.0625,0.99822998046875,0.00695800781250,0.05877685546875,0.00000000000000
1721764457.06,0,0,3,0,0.0500,0.0100,-0.4600,-0.0625,0.0625,0.0000,0.99822998046875,0.00695800781250,0.05877685546875,0.00000000000000
1721764457.07,0,0,3,0,0.0600,-0.0100,-0.4200,-0.0625,0.2500,-0.0625,0.99822998046875,0.00695800781250,0.05877685546875,0.00000000000000
1721764457.08,0,0,3,0,0.0500,0.0000,-0.4700,0.0000,0.0000,0.0000,0.99822998046875,0.00695800781250,0.05877685546875,0.00000000000000
1721764457.09,0,0,3,0,0.0500,-0.0200,-0.4600,0.0000,-0.1250,0.0000,0.99822998046875,0.00695800781250,0.05877685546875,0.00000000000000
1721764457.09,0,0,3,0,0.0500,-0.0300,-0.3900,-0.0625,0.0000,-0.0625,0.99822998046875,0.00695800781250,0.05877685546875,0.00000000000000
1721764457.11,0,0,3,0,0.0900,-0.0300,-0.3600,0.0000,-0.3125,0.0000,0.99822998046875,0.00695800781250,0.05877685546875,0.00000000000000
1721764457.12,0,0,3,0,0.1000,-0.0300,-0.4100,0.0000,0.0000,0.0000,0.99822998046875,0.00695800781250,0.05877685546875,0.00000000000000
1721764457.13,0,0,3,0,0.0400,-0.0100,-0.5500,-0.0625,1.0000,0.0000,0.99822998046875,0.00695800781250,0.05889892578125,0.00000000000000
1721764457.14,0,0,3,0,0.0400,0.0200,-0.3800,-0.2500,-0.0625,0.0000,0.99822998046875,0.00695800781250,0.05889892578125,0.00000000000000
1721764457.15,0,0,3,0,0.0700,0.0000,-0.3200,0.7500,-1.5000,-0.0625,0.99822998046875,0.00701904296875,0.05871582031250,0.00000000000000
1721764457.16,0,0,3,0,0.0800,0.0200,-0.4500,-0.0625,1.0000,0.0000,0.99822998046875,0.00701904296875,0.05883789062500,0.00000000000000
1721764457.17,0,0,3,0,0.0700,0.0100,-0.4000,-0.7500,1.0625,0.0000,0.99822998046875,0.00695800781250,0.05889892578125,0.00000000000000
1721764457.18,0,0,3,0,0.0800,0.0300,-0.3200,0.8750,-1.4375,0.0000,0.99822998046875,0.00708007812500,0.05877685546875,0.00000000000000
1721764457.19,0,0,3,0,0.0700,0.0000,-0.4400,0.0000,0.1250,0.0000,0.99822998046875,0.00708007812500,0.05877685546875,0.00000000000000
1721764457.20,0,0,3,0,0.0700,0.0000,-0.4900,-0.8750,1.5625,0.0625,0.99822998046875,0.00695800781250,0.05895996093750,0.00000000000000
1721764457.21,0,0,3,0,0.0700,-0.0200,-0.3300,0.6250,-0.7500,0.0000,0.99822998046875,0.00701904296875,0.05883789062500,0.00000000000000
1721764457.22,0,0,3,0,0.0900,-0.0100,-0.3600,0.3750,-1.0000,0.0000,0.99822998046875,0.00701904296875,0.05877685546875,0.00000000000000
1721764457.23,0,0,3,0,0.0600,-0.0200,-0.5200,-0.6875,1.5000,0.0000,0.99822998046875,0.00695800781250,0.05889892578125,0.00000000000000
1721764457.24,0,0,3,0,0.0900,0.0000,-0.4000,0.0000,0.0625,0.0000,0.99822998046875,0.00695800781250,0.05889892578125,0.00000000000000
1721764457.25,0,0,3,0,0.0600,0.0000,-0.3600,0.5000,-1.1250,0.0000,0.99822998046875,0.00695800781250,0.05877685546875,0.00000000000000
1721764457.26,0,0,3,0,0.0500,0.0000,-0.4800,-0.1250,0.6875,0.0000,0.99822998046875,0.00695800781250,0.05883789062500,0.00000000000000
1721764457.27,0,0,3,0,0.0600,-0.0100,-0.4700,-0.5625,0.6250,0.0000,0.99822998046875,0.00689697265625,0.05889892578125,0.00000000000000
1721764457.28,0,0,3,0,0.0600,-0.0100,-0.3900,0.6875,-0.8750,0.0000,0.99822998046875,0.00695800781250,0.05883789062500,0.00000000000000
1721764457.29,0,0,3,0,0.0400,-0.0300,-0.4600,0.0000,-0.0625,0.0000,0.99822998046875,0.00695800781250,0.05883789062500,0.00000000000000
1721764457.30,0,0,3,0,0.0500,0.0000,-0.4900,-0.5000,0.6875,0.0000,0.99822998046875,0.00695800781250,0.05889892578125,0.00000000000000
1721764457.31,0,0,3,0,0.0500,-0.0200,-0.4500,0.3125,-0.5625,0.0000,0.99822998046875,0.00695800781250,0.05883789062500,0.00000000000000
1721764457.32,0,0,3,0,0.0700,-0.0200,-0.4200,0.0000,-0.5000,0.0000,0.99822998046875,0.00695800781250,0.05883789062500,0.00000000000000
1721764457.33,0,0,3,0,0.0700,-0.0500,-0.5300,-0.1875,0.6250,0.0000,0.99822998046875,0.00695800781250,0.05889892578125,0.00000000000000
1721764457.34,0,0,3,0,0.0700,0.0000,-0.4600,0.1250,0.0000,0.0000,0.99822998046875,0.00695800781250,0.05889892578125,0.00000000000000
1721764457.34,0,0,3,0,0.0800,0.0000,-0.3900,0.1875,-0.6875,0.0000,0.99822998046875,0.00695800781250,0.05883789062500,0.00000000000000
1721764457.36,0,0,3,0,0.0500,0.0100,-0.4900,0.0000,0.2500,0.0000,0.99822998046875,0.00695800781250,0.05883789062500,0.00000000000000
1721764457.37,0,0,3,0,0.0600,0.0400,-0.4300,-0.1250,0.2500,0.0000,0.99822998046875,0.00695800781250,0.05883789062500,0.00000000000000
1721764457.38,0,0,3,0,0.0600,0.0000,-0.3700,0.0625,-0.5625,0.0000,0.99822998046875,0.00695800781250,0.05877685546875,0.00000000000000
1721764457.39,0,0,3,0,0.0600,-0.0100,-0.4800,0.0000,0.2500,-0.1250,0.99822998046875,0.00695800781250,0.05877685546875,0.00000000000000
1721764457.40,0,0,3,0,0.0600,-0.0200,-0.4600,-0.3125,0.5000,-0.0625,0.99822998046875,0.00695800781250,0.05877685546875,0.00000000000000
1721764457.41,0,0,3,0,0.0500,-0.0300,-0.4400,0.1250,-0.0625,0.0000,0.99822998046875,0.00695800781250,0.05877685546875,0.00000000000000
1721764457.42,0,0,3,0,0.0600,-0.0100,-0.4100,0.0000,-0.1250,0.0000,0.99822998046875,0.00695800781250,0.05877685546875,0.00000000000000
1721764457.43,0,0,3,0,0.0600,-0.0100,-0.4900,-0.0625,0.0000,0.0000,0.99822998046875,0.00695800781250,0.05877685546875,0.00000000000000
1721764457.44,0,0,3,0,0.0700,0.0100,-0.4600,0.0625,0.3125,0.0000,0.99822998046875,0.00695800781250,0.05877685546875,0.00000000000000
1721764457.45,0,0,3,0,0.0500,0.0100,-0.4200,0.0000,-0.1250,0.0000,0.99822998046875,0.00695800781250,0.05877685546875,0.00000000000000
1721764457.46,0,0,3,0,0.0500,0.0000,-0.3900,0.1875,-0.0625,0.0000,0.99822998046875,0.00695800781250,0.05877685546875,0.00000000000000
1721764457.47,0,0,3,0,0.0400,0.0000,-0.4300,-0.1250,0.1875,0.0000,0.99822998046875,0.00695800781250,0.05877685546875,0.00000000000000
1721764457.48,0,0,3,0,0.0500,0.0000,-0.4300,-0.1875,0.1250,0.0000,0.99822998046875,0.00695800781250,0.05877685546875,0.00000000000000
1721764457.49,0,0,3,0,0.0900,0.0000,-0.4100,0.1250,0.0000,0.0000,0.99822998046875,0.00695800781250,0.05877685546875,0.00000000000000
1721764457.50,0,0,3,0,0.0600,-0.0200,-0.4300,-0.1250,0.1250,0.0000,0.99822998046875,0.00695800781250,0.05877685546875,0.00000000000000
1721764457.51,0,0,3,0,0.0500,-0.0300,-0.4300,-0.0625,0.0000,0.0000,0.99822998046875,0.00695800781250,0.05877685546875,0.00000000000000
1721764457.52,0,0,3,0,0.0700,-0.0400,-0.4200,0.0625,-0.0625,0.0000,0.99822998046875,0.00695800781250,0.05877685546875,0.00000000000000
1721764457.53,0,0,3,0,0.0400,-0.0200,-0.4700,-0.0625,0.0625,0.0000,0.99822998046875,0.00695800781250,0.05877685546875,0.00000000000000
1721764457.54,0,0,3,0,0.0500,-0.0200,-0.4700,0.0000,0.0625,0.0000,0.99822998046875,0.00695800781250,0.05877685546875,0.00000000000000
1721764457.55,0,0,3,0,0.0500,0.0000,-0.4300,0.0625,-0.1875,-0.0625,0.99822998046875,0.00695800781250,0.05877685546875,0.00000000000000
1721764457.56,0,0,3,0,0.0600,0.0100,-0.4500,0.0000,-0.0625,0.0000,0.99822998046875,0.00695800781250,0.05877685546875,0.00000000000000
1721764457.57,0,0,3,0,0.0600,0.0000,-0.4600,0.0000,0.1875,0.0000,0.99822998046875,0.00695800781250,0.05877685546875,0.00000000000000
1721764457.58,0,0,3,0,0.0600,0.0000,-0.4300,-0.0625,0.0000,0.0625,0.99822998046875,0.00695800781250,0.05877685546875,0.00000000000000
1721764457.59,0,0,3,0,0.0700,0.0200,-0.4300,0.0000,0.0000,0.0000,0.99822998046875,0.00695800781250,0.05877685546875,0.00000000000000
1721764457.59,0,0,3,0,0.0700,0.0000,-0.4300,-0.0625,0.0000,0.0000,0.99822998046875,0.00695800781250,0.05877685546875,0.00000000000000
1721764457.61,0,0,3,0,0.0700,-0.0100,-0.4200,0.0000,0.0000,-0.0625,0.99822998046875,0.00695800781250,0.05877685546875,0.00000000000000
1721764457.62,0,0,3,0,0.0300,-0.0200,-0.4000,0.0000,0.0000,0.0000,0.99822998046875,0.00695800781250,0.05877685546875,0.00000000000000
1721764457.63,0,0,3,0,0.0300,-0.0200,-0.4300,0.0000,-0.0625,0.0000,0.99822998046875,0.00695800781250,0.05877685546875,0.00000000000000
1721764457.64,0,0,3,0,0.0500,-0.0300,-0.4700,0.1875,0.0000,0.0000,0.99822998046875,0.00695800781250,0.05877685546875,0.00000000000000
1721764457.65,0,0,3,0,0.0600,0.0000,-0.4100,-0.0625,-0.0625,0.0000,0.99822998046875,0.00695800781250,0.05877685546875,0.00000000000000
1721764457.66,0,0,3,0,0.0700,0.0000,-0.4000,0.1250,-0.3750,0.0000,0.99822998046875,0.00695800781250,0.05877685546875,0.00000000000000
1721764457.67,0,0,3,0,0.0700,0.0000,-0.4600,0.0625,0.5000,0.0000,0.99822998046875,0.00695800781250,0.05877685546875,0.00000000000000
1721764457.68,0,0,3,0,0.0600,0.0000,-0.4500,-0.3125,0.5625,0.0000,0.99822998046875,0.00695800781250,0.05883789062500,0.00000000000000
1721764457.69,0,0,3,0,0.0500,0.0000,-0.4100,0.1875,-0.3125,0.0000,0.99822998046875,0.00695800781250,0.05883789062500,0.00000000000000
1721764457.70,0,0,3,0,0.0500,-0.0200,-0.4400,0.0000,0.0000,-0.0625,0.99822998046875,0.00695800781250,0.05883789062500,0.00000000000000
1721764457.71,0,0,3,0,0.0700,-0.0400,-0.4200,-0.1875,0.3125,0.0000,0.99822998046875,0.00695800781250,0.05883789062500,0.00000000000000
1721764457.72,0,0,3,0,0.0800,-0.0400,-0.4100,0.1250,-0.0625,-0.0625,0.99822998046875,0.00695800781250,0.05883789062500,0.00000000000000
1721764457.73,0,0,3,0,0.0800,-0.0200,-0.4100,0.0000,0.0000,0.0000,0.99822998046875,0.00695800781250,0.05883789062500,0.00000000000000
1721764457.74,0,0,3,0,0.0600,-0.0100,-0.4700,-0.1250,0.3125,-0.0625,0.99822998046875,0.00695800781250,0.05883789062500,0.00000000000000
1721764457.75,0,0,3,0,0.0600,0.0000,-0.4200,0.0000,-0.0625,0.0000,0.99822998046875,0.00695800781250,0.05883789062500,0.00000000000000
1721764457.76,0,0,3,0,0.0500,0.0000,-0.4400,0.1250,-0.1875,0.0000,0.99822998046875,0.00695800781250,0.05883789062500,0.00000000000000
1721764457.77,0,0,3,0,0.0400,0.0000,-0.4700,0.0000,0.3125,0.0000,0.99822998046875,0.00695800781250,0.05883789062500,0.00000000000000
1721764457.78,0,0,3,0,0.0900,0.0000,-0.3600,-0.0625,-0.6250,0.0000,0.99822998046875,0.00695800781250,0.05877685546875,0.00000000000000
1721764457.79,0,0,3,0,0.0600,0.0000,-0.4900,0.2500,0.3750,0.0000,0.99822998046875,0.00695800781250,0.05877685546875,0.00000000000000
1721764457.80,0,0,3,0,0.0700,-0.0100,-0.4600,-0.6250,0.8125,0.0000,0.99822998046875,0.00689697265625,0.05883789062500,0.00000000000000
1721764457.81,0,0,3,0,0.0700,-0.0100,-0.3800,0.1250,-0.6250,0.0000,0.99822998046875,0.00689697265625,0.05877685546875,0.00000000000000
1721764457.82,0,0,3,0,0.0500,-0.0200,-0.4800,0.4375,0.1250,0.0000,0.99822998046875,0.00689697265625,0.05877685546875,0.00000000000000
1721764457.83,0,0,3,0,0.0600,-0.0300,-0.4600,-0.6875,0.6875,0.0000,0.99822998046875,0.00683593750000,0.05883789062500,0.00000000000000
1721764457.84,0,0,3,0,0.0700,-0.0100,-0.4400,0.2500,-0.3125,-0.0625,0.99822998046875,0.00683593750000,0.05883789062500,0.00000000000000
1721764457.84,0,0,3,0,0.0600,0.0000,-0.4100,0.2500,-0.6250,0.0625,0.99822998046875,0.00683593750000,0.05877685546875,0.00000000000000
1721764457.86,0,0,3,0,0.0400,0.0000,-0.5200,-0.3750,0.7500,0.0625,0.99822998046875,0.00683593750000,0.05883789062500,0.00000000000000
1721764457.87,0,0,3,0,0.0600,0.0000,-0.4500,0.0000,0.1250,0.0000,0.99822998046875,0.00683593750000,0.05883789062500,0.00000000000000
1721764457.88,0,0,3,0,0.0600,0.0000,-0.3900,0.1250,-0.6250,0.0625,0.99822998046875,0.00683593750000,0.05877685546875,0.00000000000000
1721764457.89,0,0,3,0,0.0800,0.0000,-0.5100,0.0000,0.3750,0.0000,0.99822998046875,0.00683593750000,0.05877685546875,0.00000000000000
1721764457.90,0,0,3,0,0.0700,0.0000,-0.4700,-0.3750,0.5000,0.0000,0.99822998046875,0.00683593750000,0.05877685546875,0.00000000000000
1721764457.91,0,0,3,0,0.0700,0.0000,-0.3800,0.1250,-0.8125,0.0000,0.99822998046875,0.00683593750000,0.05871582031250,0.00000000000000
1721764457.92,0,0,3,0,0.0600,0.0000,-0.4100,0.0625,0.0000,0.0000,0.99822998046875,0.00683593750000,0.05871582031250,0.00000000000000
1721764457.93,0,0,3,0,0.0300,-0.0100,-0.4600,-0.3750,0.5625,0.0000,0.99822998046875,0.00683593750000,0.05877685546875,0.00000000000000
1721764457.94,0,0,3,0,0.0700,0.0000,-0.4500,0.2500,-0.1875,-0.0625,0.99822998046875,0.00683593750000,0.05877685546875,0.00000000000000
1721764457.95,0,0,3,0,0.0800,0.0000,-0.4200,0.1250,-0.1875,-0.0625,0.99822998046875,0.00683593750000,0.05877685546875,0.00000000000000
1721764457.96,0,0,3,0,0.0700,0.0000,-0.4400,-0.1250,0.4375,-0.0625,0.99822998046875,0.00683593750000,0.05877685546875,0.00000000000000
1721764457.97,0,0,3,0,0.0600,0.0000,-0.4300,0.0000,0.0625,0.0000,0.99822998046875,0.00683593750000,0.05877685546875,0.00000000000000
1721764457.98,0,0,3,0,0.0700,0.0200,-0.4200,0.1250,-0.1875,0.0000,0.99822998046875,0.00683593750000,0.05877685546875,0.00000000000000
1721764457.99,0,0,3,0,0.0400,0.0000,-0.4700,0.0000,0.2500,0.0625,0.99822998046875,0.00683593750000,0.05877685546875,0.00000000000000
1721764458.00,0,0,3,0,0.0600,0.0000,-0.4000,-0.1875,0.0000,-0.0625,0.99822998046875,0.00683593750000,0.05877685546875,0.00000000000000
1721764458.01,0,0,3,0,0.0700,0.0000,-0.4000,0.1875,-0.5625,0.0000,0.99822998046875,0.00683593750000,0.05871582031250,0.00000000000000
1721764458.02,0,0,3,0,0.0500,-0.0300,-0.4500,0.0000,0.2500,0.0625,0.99822998046875,0.00683593750000,0.05871582031250,0.00000000000000
1721764458.03,0,0,3,0,0.0600,-0.0300,-0.4500,-0.3750,0.3125,0.0000,0.99822998046875,0.00683593750000,0.05871582031250,0.00000000000000
1721764458.04,0,0,3,0,0.0600,-0.0100,-0.4100,0.1250,-0.1875,-0.0625,0.99822998046875,0.00683593750000,0.05871582031250,0.00000000000000
1721764458.05,0,0,3,0,0.0500,0.0000,-0.4000,0.0000,-0.1250,0.0000,0.99822998046875,0.00683593750000,0.05871582031250,0.00000000000000
1721764458.06,0,0,3,0,0.0700,0.0000,-0.4400,-0.2500,0.3750,0.0000,0.99822998046875,0.00683593750000,0.05871582031250,0.00000000000000
1721764458.07,0,0,3,0,0.0600,0.0100,-0.4300,0.0000,0.0000,0.0000,0.99822998046875,0.00683593750000,0.05871582031250,0.00000000000000
1721764458.08,0,0,3,0,0.0700,0.0000,-0.4300,0.0000,-0.1250,0.0000,0.99822998046875,0.00683593750000,0.05871582031250,0.00000000000000
1721764458.09,0,0,3,0,0.0500,0.0100,-0.4500,-0.0625,0.3125,0.0000,0.99822998046875,0.00683593750000,0.05871582031250,0.00000000000000
1721764458.10,0,0,3,0,0.0700,-0.0100,-0.4500,0.0000,0.0000,0.0000,0.99822998046875,0.00683593750000,0.05871582031250,0.00000000000000
1721764458.11,0,0,3,0,0.0600,0.0000,-0.4100,-0.0625,0.0000,0.0000,0.99822998046875,0.00683593750000,0.05871582031250,0.00000000000000
1721764458.12,0,0,3,0,0.0400,-0.0300,-0.5000,-0.0625,0.3125,0.0000,0.99822998046875,0.00683593750000,0.05871582031250,0.00000000000000
1721764458.13,0,0,3,0,0.0400,-0.0100,-0.4300,0.0000,0.0625,0.0000,0.99822998046875,0.00683593750000,0.05871582031250,0.00000000000000
1721764458.14,0,0,3,0,0.0600,0.0000,-0.3700,0.0000,-0.5000,0.0625,0.99822998046875,0.00683593750000,0.05871582031250,0.00000000000000
1721764458.15,0,0,3,0,0.0600,-0.0100,-0.4400,-0.0625,0.5625,0.0000,0.99822998046875,0.00683593750000,0.05871582031250,0.00000000000000
1721764458.16,0,0,3,0,0.0500,0.0000,-0.4800,-0.2500,0.6875,0.0000,0.99822998046875,0.00683593750000,0.05877685546875,0.00000000000000
1721764458.17,0,0,3,0,0.0700,0.0000,-0.3600,0.3125,-1.0625,0.0000,0.99822998046875,0.00683593750000,0.05871582031250,0.00000000000000
1721764458.18,0,0,3,0,0.0600,0.0000,-0.4000,0.3750,0.0000,0.0000,0.99822998046875,0.00683593750000,0.05871582031250,0.00000000000000
1721764458.19,0,0,3,0,0.0500,0.0000,-0.5000,-0.7500,1.0625,0.0000,0.99822998046875,0.00677490234375,0.05877685546875,0.00000000000000
1721764458.20,0,0,3,0,0.0700,0.0100,-0.3800,0.2500,-0.5000,0.0000,0.99822998046875,0.00677490234375,0.05877685546875,0.00000000000000
1721764458.21,0,0,3,0,0.0800,0.0000,-0.3500,0.5000,-0.8750,0.0000,0.99822998046875,0.00677490234375,0.05871582031250,0.00000000000000
1721764458.22,0,0,3,0,0.0700,0.0000,-0.4500,-0.6875,1.0000,0.0000,0.99822998046875,0.00671386718750,0.05883789062500,0.00000000000000
1721764458.23,0,0,3,0,0.0700,0.0100,-0.4200,0.0000,0.2500,0.0000,0.99822998046875,0.00671386718750,0.05883789062500,0.00000000000000
1721764458.24,0,0,3,0,0.0800,0.0000,-0.3800,0.3125,-0.7500,0.0000,0.99822998046875,0.00671386718750,0.05871582031250,0.00000000000000
1721764458.25,0,0,3,0,0.0600,0.0000,-0.4600,-0.2500,0.6875,0.0000,0.99822998046875,0.00671386718750,0.05877685546875,0.00000000000000
1721764458.26,0,0,3,0,0.0600,0.0000,-0.5000,-0.1875,0.4375,-0.0625,0.99822998046875,0.00671386718750,0.05877685546875,0.00000000000000
1721764458.27,0,0,3,0,0.0700,0.0000,-0.3800,0.2500,-0.8125,0.0000,0.99822998046875,0.00671386718750,0.05871582031250,0.00000000000000
1721764458.28,0,0,3,0,0.0600,0.0000,-0.4300,0.0625,0.0000,0.0000,0.99822998046875,0.00671386718750,0.05871582031250,0.00000000000000
1721764458.29,0,0,3,0,0.0500,0.0000,-0.4900,-0.4375,0.5625,0.0000,0.99822998046875,0.00671386718750,0.05877685546875,0.00000000000000
1721764458.30,0,0,3,0,0.0700,0.0000,-0.4600,0.1875,-0.5000,0.0000,0.99822998046875,0.00671386718750,0.05877685546875,0.00000000000000
1721764458.31,0,0,3,0,0.0800,-0.0300,-0.4100,0.1250,-0.3750,-0.0625,0.99822998046875,0.00671386718750,0.05877685546875,0.00000000000000
1721764458.32,0,0,3,0,0.0700,-0.0200,-0.4600,-0.4375,0.7500,0.0000,0.99822998046875,0.00671386718750,0.05883789062500,0.00000000000000
1721764458.33,0,0,3,0,0.0700,0.0000,-0.4700,0.0000,0.0625,0.0000,0.99822998046875,0.00671386718750,0.05883789062500,0.00000000000000
1721764458.34,0,0,3,0,0.0600,-0.0200,-0.4400,0.3125,-0.5000,0.0000,0.99822998046875,0.00671386718750,0.05883789062500,0.00000000000000
1721764458.35,0,0,3,0,0.0600,-0.0100,-0.4800,-0.1250,0.3125,-0.0625,0.99822998046875,0.00671386718750,0.05883789062500,0.00000000000000
1721764458.36,0,0,3,0,0.0500,-0.0100,-0.4700,-0.1250,0.1250,0.0000,0.99822998046875,0.00671386718750,0.05883789062500,0.00000000000000
1721764458.37,0,0,3,0,0.0700,-0.0100,-0.4200,0.1875,-0.5625,0.0000,0.99822998046875,0.00671386718750,0.05877685546875,0.00000000000000
1721764458.38,0,0,3,0,0.0700,0.0000,-0.4100,0.0000,0.0625,0.0000,0.99822998046875,0.00671386718750,0.05877685546875,0.00000000000000
1721764458.39,0,0,3,0,0.0500,0.0100,-0.4600,-0.1875,0.4375,0.0000,0.99822998046875,0.00671386718750,0.05877685546875,0.00000000000000
1721764458.40,0,0,3,0,0.0700,0.0000,-0.4200,0.1250,-0.3750,0.0000,0.99822998046875,0.00671386718750,0.05877685546875,0.00000000000000
1721764458.41,0,0,3,0,0.0500,0.0000,-0.4700,0.0625,-0.2500,0.0000,0.99822998046875,0.00671386718750,0.05877685546875,0.00000000000000
1721764458.42,0,0,3,0,0.0500,-0.0200,-0.6300,1.0625,-3.3125,0.0000,0.99829101562500,0.00683593750000,0.05847167968750,0.00000000000000
1721764458.43,0,0,3,0,0.0800,0.0000,-0.3700,3.9375,-12.3750,-0.0625,0.99835205078125,0.00714111328125,0.05743408203125,0.00000000000000
1721764458.44,0,0,3,0,0.1000,0.0200,-0.3000,5.2500,-14.0000,-0.0625,0.99841308593750,0.00762939453125,0.05621337890625,-0.00006103515625
1721764458.45,0,0,3,0,0.1100,-0.0100,-0.1800,2.0625,-9.1875,-0.1875,0.99841308593750,0.00781250000000,0.05535888671875,-0.00006103515625
1721764458.46,0,0,3,0,0.0500,0.0100,-0.5900,0.4375,-0.3125,0.0000,0.99841308593750,0.00781250000000,0.05535888671875,-0.00006103515625
1721764458.47,0,0,3,0,0.0500,-0.0200,-0.6100,-1.1875,2.6250,0.0625,0.99841308593750,0.00769042968750,0.05560302734375,-0.00006103515625
1721764458.48,0,0,3,0,0.0600,-0.0100,-0.3700,0.2500,-2.0000,0.0000,0.99841308593750,0.00769042968750,0.05541992187500,-0.00006103515625
1721764458.49,0,0,3,0,0.0600,0.0000,-0.3600,1.2500,-0.7500,0.0000,0.99841308593750,0.00781250000000,0.05535888671875,-0.00006103515625
1721764458.50,0,0,3,0,0.0400,-0.0200,-0.5500,-1.7500,1.9375,0.0625,0.99841308593750,0.00762939453125,0.05554199218750,-0.00006103515625
1721764458.51,0,0,3,0,0.0800,0.0100,-0.4300,0.3750,-0.3125,0.0000,0.99841308593750,0.00762939453125,0.05554199218750,-0.00006103515625
1721764458.52,0,0,3,0,0.0900,0.0300,-0.3300,0.9375,-1.5000,0.0000,0.99841308593750,0.00775146484375,0.05541992187500,-0.00006103515625
1721764458.53,0,0,3,0,0.0800,-0.0200,-0.4100,-1.0000,1.2500,0.0625,0.99841308593750,0.00762939453125,0.05554199218750,-0.00006103515625
1721764458.54,0,0,3,0,0.0500,-0.0100,-0.4900,0.0625,0.7500,0.0000,0.99841308593750,0.00762939453125,0.05560302734375,-0.00006103515625
1721764458.55,0,0,3,0,0.0800,0.0000,-0.3400,0.4375,-1.6875,-0.0625,0.99841308593750,0.00762939453125,0.05541992187500,-0.00006103515625
1721764458.56,0,0,3,0,0.0600,0.0000,-0.4500,-0.1250,0.3750,0.0000,0.99841308593750,0.00762939453125,0.05541992187500,-0.00006103515625
1721764458.57,0,0,3,0,0.0200,-0.0100,-0.5600,-0.4375,1.1250,0.0000,0.99841308593750,0.00762939453125,0.05554199218750,-0.00006103515625
1721764458.58,0,0,3,0,0.0900,-0.0200,-0.3400,0.3750,-1.1875,0.0000,0.99841308593750,0.00762939453125,0.05541992187500,-0.00006103515625
1721764458.59,0,0,3,0,0.0600,0.0000,-0.4000,0.4375,0.0000,0.0000,0.99841308593750,0.00762939453125,0.05541992187500,-0.00006103515625
1721764458.60,0,0,3,0,0.0300,0.0100,-0.5000,-0.8750,1.3125,0.0000,0.99841308593750,0.00756835937500,0.05554199218750,-0.00006103515625
1721764458.61,0,0,3,0,0.0800,0.0000,-0.4000,0.3750,-0.4375,0.0000,0.99841308593750,0.00756835937500,0.05554199218750,-0.00006103515625
1721764458.62,0,0,3,0,0.0800,0.0000,-0.4000,0.3750,-0.6875,0.0000,0.99841308593750,0.00756835937500,0.05548095703125,-0.00006103515625
1721764458.63,0,0,3,0,0.0500,0.0100,-0.5100,-0.6875,1.1250,0.0000,0.99841308593750,0.00750732421875,0.05560302734375,-0.00006103515625
1721764458.64,0,0,3,0,0.0400,0.0000,-0.5200,0.0000,0.0000,0.0000,0.99841308593750,0.00750732421875,0.05560302734375,-0.00006103515625
1721764458.65,0,0,3,0,0.0800,0.0000,-0.3400,0.3125,-1.1250,0.0000,0.99841308593750,0.00750732421875,0.05548095703125,-0.00006103515625
1721764458.66,0,0,3,0,0.0600,0.0000,-0.5000,0.0000,0.5000,0.0000,0.99841308593750,0.00750732421875,0.05548095703125,-0.00006103515625
1721764458.67,0,0,3,0,0.0500,-0.0200,-0.5000,-0.3125,0.6250,0.0000,0.99841308593750,0.00750732421875,0.05554199218750,-0.00006103515625
1721764458.68,0,0,3,0,0.0700,0.0000,-0.3900,0.3750,-1.0000,0.0000,0.99841308593750,0.00750732421875,0.05541992187500,-0.00006103515625
1721764458.69,0,0,3,0,0.0600,0.0000,-0.4700,0.0000,0.0000,0.0625,0.99841308593750,0.00750732421875,0.05541992187500,-0.00006103515625
1721764458.70,0,0,3,0,0.0200,-0.0100,-0.5200,-0.4375,0.8750,0.0625,0.99841308593750,0.00750732421875,0.05554199218750,-0.00006103515625
1721764458.71,0,0,3,0,0.0700,0.0100,-0.4300,0.3125,-0.5625,0.0000,0.99841308593750,0.00750732421875,0.05548095703125,-0.00006103515625
1721764458.72,0,0,3,0,0.0900,0.0300,-0.3800,0.2500,-0.4375,-0.1250,0.99841308593750,0.00750732421875,0.05548095703125,-0.00006103515625
1721764458.73,0,0,3,0,0.0600,0.0000,-0.5300,-0.4375,0.8125,0.0000,0.99841308593750,0.00750732421875,0.05554199218750,-0.00006103515625
1721764458.74,0,0,3,0,0.0800,0.0100,-0.4400,0.0000,0.0625,0.0000,0.99841308593750,0.00750732421875,0.05554199218750,-0.00006103515625
1721764458.75,0,0,3,0,0.0600,0.0000,-0.4000,0.2500,-0.6250,0.0000,0.99841308593750,0.00750732421875,0.05548095703125,-0.00006103515625
1721764458.76,0,0,3,0,0.0600,0.0000,-0.4100,-0.1250,0.4375,0.0000,0.99841308593750,0.00750732421875,0.05548095703125,-0.00006103515625
1721764458.77,0,0,3,0,0.0500,-0.0200,-0.4700,-0.1875,0.4375,0.0000,0.99841308593750,0.00750732421875,0.05548095703125,-0.00006103515625
1721764458.78,0,0,3,0,0.0700,0.0000,-0.4100,0.1250,-0.1875,0.0000,0.99841308593750,0.00750732421875,0.05548095703125,-0.00006103515625
1721764458.79,0,0,3,0,0.0700,-0.0100,-0.4000,0.0000,0.0000,0.0000,0.99841308593750,0.00750732421875,0.05548095703125,-0.00006103515625
1721764458.80,0,0,3,0,0.0600,-0.0100,-0.4800,-0.0625,0.4375,0.0000,0.99841308593750,0.00750732421875,0.05548095703125,-0.00006103515625
1721764458.81,0,0,3,0,0.0600,0.0000,-0.4300,0.0000,-0.1250,0.0625,0.99841308593750,0.00750732421875,0.05548095703125,-0.00006103515625
1721764458.82,0,0,3,0,0.0600,0.0000,-0.4300,0.1250,-0.1250,0.0000,0.99841308593750,0.00750732421875,0.05548095703125,-0.00006103515625
1721764458.83,0,0,3,0,0.0600,0.0000,-0.4600,-0.0625,0.2500,0.0000,0.99841308593750,0.00750732421875,0.05548095703125,-0.00006103515625
1721764458.84,0,0,3,0,0.0800,0.0000,-0.4400,0.0000,0.0625,0.0000,0.99841308593750,0.00750732421875,0.05548095703125,-0.00006103515625
1721764458.85,0,0,3,0,0.0700,0.0000,-0.4100,0.0000,0.0000,0.0000,0.99841308593750,0.00750732421875,0.05548095703125,-0.00006103515625
1721764458.86,0,0,3,0,0.0800,0.0100,-0.4200,-0.1250,0.1875,0.0000,0.99841308593750,0.00750732421875,0.05548095703125,-0.00006103515625
1721764458.87,0,0,3,0,0.0600,0.0200,-0.4400,0.0000,0.2500,0.0000,0.99841308593750,0.00750732421875,0.05548095703125,-0.00006103515625
1721764458.88,0,0,3,0,0.0800,-0.0100,-0.4300,0.1250,0.0000,0.0000,0.99841308593750,0.00750732421875,0.05548095703125,-0.00006103515625
1721764458.89,0,0,3,0,0.0600,0.0000,-0.4700,0.0000,0.0000,0.0000,0.99841308593750,0.00750732421875,0.05548095703125,-0.00006103515625
1721764458.90,0,0,3,0,0.0700,0.0000,-0.4800,0.0000,0.3125,0.0000,0.99841308593750,0.00750732421875,0.05548095703125,-0.00006103515625
1721764458.91,0,0,3,0,0.0500,-0.0100,-0.4500,0.0000,0.0000,0.0000,0.99841308593750,0.00750732421875,0.05548095703125,-0.00006103515625
1721764458.92,0,0,3,0,0.0600,0.0000,-0.4300,0.0000,0.0000,0.0000,0.99841308593750,0.00750732421875,0.05548095703125,-0.00006103515625
1721764458.93,0,0,3,0,0.0600,0.0100,-0.4500,-0.1250,0.2500,0.0000,0.99841308593750,0.00750732421875,0.05548095703125,-0.00006103515625
1721764458.94,0,0,3,0,0.0700,0.0000,-0.4700,0.0000,0.0000,0.0000,0.99841308593750,0.00750732421875,0.05548095703125,-0.00006103515625
1721764458.95,0,0,3,0,0.0600,0.0000,-0.4300,0.0000,0.0000,0.0000,0.99841308593750,0.00750732421875,0.05548095703125,-0.00006103515625
1721764458.96,0,0,3,0,0.0500,0.0000,-0.4900,0.0000,0.1875,0.0000,0.99841308593750,0.00750732421875,0.05548095703125,-0.00006103515625
1721764458.97,0,0,3,0,0.0300,0.0100,-0.4300,-0.0625,0.2500,0.0000,0.99841308593750,0.00750732421875,0.05548095703125,-0.00006103515625
1721764458.98,0,0,3,0,0.0700,0.0000,-0.3500,0.0625,-0.6875,0.0000,0.99841308593750,0.00750732421875,0.05541992187500,-0.00006103515625
1721764458.99,0,0,3,0,0.0700,-0.0200,-0.4100,0.1250,0.2500,0.0625,0.99841308593750,0.00750732421875,0.05541992187500,-0.00006103515625
1721764459.00,0,0,3,0,0.0500,0.0000,-0.4600,-0.5000,0.6250,0.0000,0.99841308593750,0.00750732421875,0.05541992187500,-0.00006103515625
1721764459.01,0,0,3,0,0.0700,-0.0200,-0.3600,0.1875,-0.8750,-0.0625,0.99841308593750,0.00750732421875,0.05535888671875,-0.00006103515625
1721764459.02,0,0,3,0,0.0900,0.0000,-0.3800,0.3750,-0.1250,0.0000,0.99841308593750,0.00750732421875,0.05535888671875,-0.00006103515625
1721764459.03,0,0,3,0,0.0600,0.0200,-0.4800,-0.6875,0.9375,0.0000,0.99841308593750,0.00744628906250,0.05548095703125,-0.00006103515625
1721764459.04,0,0,3,0,0.0800,0.0000,-0.4500,0.3750,-0.2500,0.0000,0.99841308593750,0.00744628906250,0.05548095703125,-0.00006103515625
1721764459.05,0,0,3,0,0.0800,0.0100,-0.3600,0.3125,-0.6875,-0.0625,0.99841308593750,0.00744628906250,0.05535888671875,-0.00006103515625
1721764459.06,0,0,3,0,0.0600,0.0000,-0.4100,-0.3750,0.6875,0.0000,0.99841308593750,0.00744628906250,0.05541992187500,-0.00006103515625
1721764459.07,0,0,3,0,0.0600,0.0000,-0.4100,0.0625,0.1250,0.0000,0.99841308593750,0.00744628906250,0.05541992187500,-0.00006103515625
1721764459.08,0,0,3,0,0.0800,0.0000,-0.3600,0.1875,-0.8125,0.0000,0.99841308593750,0.00744628906250,0.05535888671875,-0.00006103515625
1721764459.09,0,0,3,0,0.0600,-0.0100,-0.4500,-0.0625,0.3750,0.0000,0.99841308593750,0.00744628906250,0.05535888671875,-0.00006103515625
1721764459.10,0,0,3,0,0.0500,0.0000,-0.5300,-0.3125,0.6875,0.0000,0.99841308593750,0.00744628906250,0.05541992187500,-0.00006103515625
1721764459.11,0,0,3,0,0.0700,-0.0100,-0.3700,0.1875,-0.8125,0.0000,0.99841308593750,0.00744628906250,0.05535888671875,-0.00006103515625
1721764459.12,0,0,3,0,0.0500,0.0000,-0.4300,0.1250,-0.1250,0.0000,0.99841308593750,0.00744628906250,0.05535888671875,-0.00006103515625
1721764459.13,0,0,3,0,0.0500,0.0100,-0.5100,-0.5000,0.6250,0.0000,0.99841308593750,0.00744628906250,0.05541992187500,-0.00006103515625
1721764459.14,0,0,3,0,0.0500,0.0100,-0.4500,0.2500,-0.4375,0.0000,0.99841308593750,0.00744628906250,0.05541992187500,-0.00006103515625
1721764459.15,0,0,3,0,0.0700,0.0000,-0.4100,0.3125,-0.5625,-0.0625,0.99841308593750,0.00744628906250,0.05535888671875,-0.00006103515625
1721764459.16,0,0,3,0,0.0600,0.0000,-0.4700,-0.4375,0.6250,0.0000,0.99841308593750,0.00744628906250,0.05541992187500,-0.00006103515625
1721764459.17,0,0,3,0,0.0600,0.0000,-0.4700,0.0000,0.0000,0.0000,0.99841308593750,0.00744628906250,0.05541992187500,-0.00006103515625
1721764459.18,0,0,3,0,0.0700,0.0100,-0.4100,0.2500,-0.7500,0.0000,0.99841308593750,0.00744628906250,0.05535888671875,-0.00006103515625
1721764459.19,0,0,3,0,0.0700,-0.0100,-0.4600,0.0000,0.3125,0.0000,0.99841308593750,0.00744628906250,0.05535888671875,-0.00006103515625
1721764459.20,0,0,3,0,0.0700,-0.0200,-0.4700,-0.1250,0.3750,0.0000,0.99841308593750,0.00744628906250,0.05535888671875,-0.00006103515625
1721764459.21,0,0,3,0,0.0600,0.0000,-0.3900,0.1875,-0.5000,0.0000,0.99841308593750,0.00744628906250,0.05535888671875,-0.00006103515625
1721764459.22,0,0,3,0,0.0600,0.0000,-0.4500,0.0625,0.0625,0.0000,0.99841308593750,0.00744628906250,0.05535888671875,-0.00006103515625
1721764459.23,0,0,3,0,0.0700,0.0000,-0.4700,-0.3750,0.4375,0.0000,0.99841308593750,0.00744628906250,0.05535888671875,-0.00006103515625
1721764459.24,0,0,3,0,0.0700,0.0200,-0.4300,0.2500,-0.3125,0.0000,0.99841308593750,0.00744628906250,0.05535888671875,-0.00006103515625
1721764459.25,0,0,3,0,0.0600,0.0200,-0.4100,0.0000,-0.0625,0.0000,0.99841308593750,0.00744628906250,0.05535888671875,-0.00006103515625
1721764459.26,0,0,3,0,0.0500,-0.0100,-0.4600,-0.2500,0.3750,0.0000,0.99841308593750,0.00744628906250,0.05535888671875,-0.00006103515625
1721764459.27,0,0,3,0,0.0700,0.0000,-0.4300,0.0625,0.0000,0.0000,0.99841308593750,0.00744628906250,0.05535888671875,-0.00006103515625
1721764459.28,0,0,3,0,0.0800,0.0000,-0.4100,0.0000,-0.1250,0.0000,0.99841308593750,0.00744628906250,0.05535888671875,-0.00006103515625
1721764459.29,0,0,3,0,0.0500,0.0200,-0.4400,-0.1250,0.5625,0.0000,0.99841308593750,0.00744628906250,0.05541992187500,-0.00006103515625
1721764459.30,0,0,3,0,0.0700,-0.0100,-0.4600,-0.1250,0.0625,0.0000,0.99841308593750,0.00744628906250,0.05541992187500,-0.00006103515625
1721764459.31,0,0,3,0,0.0800,0.0000,-0.4200,0.0625,-0.5000,0.0000,0.99841308593750,0.00744628906250,0.05541992187500,-0.00006103515625
1721764459.32,0,0,3,0,0.0700,-0.0100,-0.4100,0.0000,0.0000,0.0000,0.99841308593750,0.00744628906250,0.05535888671875,-0.00006103515625
1721764459.33,0,0,3,0,0.0500,0.0000,-0.4600,-0.0625,0.1250,0.0000,0.99841308593750,0.00744628906250,0.05535888671875,-0.00006103515625
1721764459.34,0,0,3,0,0.0700,0.0000,-0.4700,0.1250,-0.1875,0.0000,0.99841308593750,0.00744628906250,0.05535888671875,-0.00006103515625
1721764459.35,0,0,3,0,0.0500,0.0200,-0.4100,0.0625,-0.1250,0.0000,0.99841308593750,0.00744628906250,0.05535888671875,-0.00006103515625
1721764459.36,0,0,3,0,0.0600,0.0100,-0.4600,-0.0625,0.3750,0.0000,0.99841308593750,0.00744628906250,0.05535888671875,-0.00006103515625
1721764459.37,0,0,3,0,0.0500,0.0100,-0.4700,0.0000,0.0000,0.0000,0.99841308593750,0.00744628906250,0.05535888671875,-0.00006103515625
1721764459.38,0,0,3,0,0.0600,0.0000,-0.4400,0.0000,-0.1250,0.0000,0.99841308593750,0.00744628906250,0.05535888671875,-0.00006103515625
1721764459.39,0,0,3,0,0.0700,-0.0100,-0.4300,-0.2500,0.1250,0.0000,0.99841308593750,0.00744628906250,0.05535888671875,-0.00006103515625
1721764459.40,0,0,3,0,0.0500,-0.0100,-0.4500,-0.0625,0.0000,0.0000,0.99841308593750,0.00744628906250,0.05535888671875,-0.00006103515625
1721764459.41,0,0,3,0,0.0600,-0.0200,-0.3900,0.1250,-0.3750,0.0000,0.99841308593750,0.00744628906250,0.05535888671875,-0.00006103515625
1721764459.42,0,0,3,0,0.0600,-0.0100,-0.4600,0.0000,0.1250,0.0000,0.99841308593750,0.00744628906250,0.05535888671875,-0.00006103515625
1721764459.43,0,0,3,0,0.0600,0.0000,-0.4600,0.0000,0.1875,0.0000,0.99841308593750,0.00744628906250,0.05535888671875,-0.00006103515625
1721764459.44,0,0,3,0,0.0700,0.0100,-0.4800,0.0625,-0.2500,0.0000,0.99841308593750,0.00744628906250,0.05535888671875,-0.00006103515625
1721764459.45,0,0,3,0,0.0600,0.0200,-0.4200,0.0625,0.0000,0.0000,0.99841308593750,0.00744628906250,0.05535888671875,-0.00006103515625
1721764459.46,0,0,3,0,0.0500,0.0200,-0.4600,-0.0625,0.1250,0.0000,0.99841308593750,0.00744628906250,0.05535888671875,-0.00006103515625
1721764459.47,0,0,3,0,0.0600,0.0000,-0.4300,0.0000,0.0000,0.0625,0.99841308593750,0.00744628906250,0.05535888671875,-0.00006103515625
1721764459.48,0,0,3,0,0.0800,0.0100,-0.4100,0.0625,0.0000,0.0000,0.99841308593750,0.00744628906250,0.05535888671875,-0.00006103515625
1721764459.49,0,0,3,0,0.0500,0.0000,-0.4700,0.0000,0.2500,0.0000,0.99841308593750,0.00744628906250,0.05535888671875,-0.00006103515625
1721764459.50,0,0,3,0,0.0500,0.0100,-0.4500,0.0000,0.2500,0.0000,0.99841308593750,0.00744628906250,0.05535888671875,-0.00006103515625
1721764459.51,0,0,3,0,0.0600,-0.0200,-0.4300,0.0000,-0.2500,0.0000,0.99841308593750,0.00744628906250,0.05535888671875,-0.00006103515625
1721764459.52,0,0,3,0,0.0800,-0.0100,-0.4300,0.0000,0.0000,0.0000,0.99841308593750,0.00744628906250,0.05535888671875,-0.00006103515625
1721764459.53,0,0,3,0,0.0600,-0.0100,-0.4800,0.0000,0.0000,0.0000,0.99841308593750,0.00744628906250,0.05535888671875,-0.00006103515625
1721764459.54,0,0,3,0,0.0600,0.0000,-0.4600,0.0625,0.0000,0.0000,0.99841308593750,0.00744628906250,0.05535888671875,-0.00006103515625
1721764459.55,0,0,3,0,0.0500,0.0000,-0.4100,0.0000,-0.0625,0.0000,0.99841308593750,0.00744628906250,0.05535888671875,-0.00006103515625
1721764459.56,0,0,3,0,0.0500,0.0100,-0.4500,0.0000,0.3125,0.0000,0.99841308593750,0.00744628906250,0.05535888671875,-0.00006103515625
1721764459.57,0,0,3,0,0.0600,0.0000,-0.4300,0.0000,0.0000,0.0625,0.99841308593750,0.00744628906250,0.05535888671875,-0.00006103515625
1721764459.58,0,0,3,0,0.0500,0.0000,-0.4300,0.0000,-0.0625,0.0000,0.99841308593750,0.00744628906250,0.05535888671875,-0.00006103515625
1721764459.59,0,0,3,0,0.0700,0.0000,-0.4600,-0.0625,0.0000,0.0000,0.99841308593750,0.00744628906250,0.05535888671875,-0.00006103515625
1721764459.60,0,0,3,0,0.0500,-0.0100,-0.4500,-0.1250,0.0000,0.0000,0.99841308593750,0.00744628906250,0.05535888671875,-0.00006103515625
1721764459.61,0,0,3,0,0.0500,0.0000,-0.4000,0.0000,-0.1250,0.0000,0.99841308593750,0.00744628906250,0.05535888671875,-0.00006103515625
1721764459.62,0,0,3,0,0.0800,-0.0100,-0.4300,0.0000,0.0000,0.0000,0.99841308593750,0.00744628906250,0.05535888671875,-0.00006103515625
1721764459.63,0,0,3,0,0.0700,0.0000,-0.4400,0.0000,0.0000,0.0000,0.99841308593750,0.00744628906250,0.05535888671875,-0.00006103515625
1721764459.64,0,0,3,0,0.0500,0.0000,-0.4400,0.0000,-0.0625,0.0000,0.99841308593750,0.00744628906250,0.05535888671875,-0.00006103515625
1721764459.65,0,0,3,0,0.0700,0.0200,-0.4300,0.0625,-0.0625,0.0625,0.99841308593750,0.00744628906250,0.05535888671875,-0.00006103515625
1721764459.66,0,0,3,0,0.0600,0.0100,-0.4400,0.0000,0.2500,0.0000,0.99841308593750,0.00744628906250,0.05535888671875,-0.00006103515625
1721764459.67,0,0,3,0,0.0600,0.0000,-0.4500,0.0000,0.0000,0.0000,0.99841308593750,0.00744628906250,0.05535888671875,-0.00006103515625
1721764459.68,0,0,3,0,0.0700,0.0000,-0.4600,0.0625,-0.1875,0.0625,0.99841308593750,0.00744628906250,0.05535888671875,-0.00006103515625
1721764459.69,0,0,3,0,0.0600,0.0000,-0.4500,0.0000,0.1875,-0.0625,0.99841308593750,0.00744628906250,0.05535888671875,-0.00006103515625
1721764459.70,0,0,3,0,0.0500,0.0000,-0.4500,-0.0625,0.1875,0.0000,0.99841308593750,0.00744628906250,0.05535888671875,-0.00006103515625
1721764459.71,0,0,3,0,0.0700,-0.0100,-0.4300,0.0625,0.0000,0.0000,0.99841308593750,0.00744628906250,0.05535888671875,-0.00006103515625
1721764459.72,0,0,3,0,0.0700,0.0000,-0.4700,-0.1250,0.1250,0.0000,0.99841308593750,0.00744628906250,0.05535888671875,-0.00006103515625
1721764459.73,0,0,3,0,0.0400,-0.0100,-0.4200,-0.0625,-0.1250,0.0000,0.99841308593750,0.00744628906250,0.05535888671875,-0.00006103515625
1721764459.74,0,0,3,0,0.0500,0.0000,-0.4200,0.0625,-0.2500,0.0000,0.99841308593750,0.00744628906250,0.05535888671875,-0.00006103515625
1721764459.75,0,0,3,0,0.0700,0.0100,-0.4300,0.0000,0.2500,0.0000,0.99841308593750,0.00744628906250,0.05535888671875,-0.00006103515625
1721764459.76,0,0,3,0,0.0400,0.0300,-0.4600,0.0000,0.1875,-0.0625,0.99841308593750,0.00744628906250,0.05535888671875,-0.00006103515625
1721764459.77,0,0,3,0,0.0600,0.0100,-0.4100,0.1250,-0.3750,0.0000,0.99841308593750,0.00744628906250,0.05535888671875,-0.00006103515625
1721764459.78,0,0,3,0,0.0500,-0.0100,-0.4100,0.0000,0.0000,0.0000,0.99841308593750,0.00744628906250,0.05535888671875,-0.00006103515625
1721764459.79,0,0,3,0,0.0600,0.0000,-0.4500,-0.1250,0.3750,0.0000,0.99841308593750,0.00744628906250,0.05535888671875,-0.00006103515625
1721764459.80,0,0,3,0,0.0800,-0.0100,-0.4400,0.0000,-0.1875,0.0000,0.99841308593750,0.00744628906250,0.05535888671875,-0.00006103515625
1721764459.81,0,0,3,0,0.0800,-0.0100,-0.4300,0.0000,-0.0625,-0.0625,0.99841308593750,0.00744628906250,0.05535888671875,-0.00006103515625
1721764459.82,0,0,3,0,0.0600,-0.0200,-0.4200,-0.0625,0.2500,0.0000,0.99841308593750,0.00744628906250,0.05535888671875,-0.00006103515625
1721764459.83,0,0,3,0,0.0600,0.0000,-0.4600,0.0000,0.0000,0.0000,0.99841308593750,0.00744628906250,0.05535888671875,-0.00006103515625
1721764459.84,0,0,3,0,0.0600,0.0200,-0.4600,0.0625,-0.1875,0.0625,0.99841308593750,0.00744628906250,0.05535888671875,-0.00006103515625
1721764459.85,0,0,3,0,0.0400,0.0000,-0.4600,0.0000,0.0000,0.0000,0.99841308593750,0.00744628906250,0.05535888671875,-0.00006103515625
1721764459.85,0,0,3,0,0.0400,0.0000,-0.4600,0.0000,0.0000,0.0000,0.99841308593750,0.00744628906250,0.05535888671875,-0.00006103515625
1721764459.86,0,0,3,0,0.0400,0.0000,-0.4300,0.0000,0.0000,0.0000,0.99841308593750,0.00744628906250,0.05535888671875,-0.00006103515625
1721764459.87,0,0,3,0,0.0600,0.0200,-0.4500,0.0000,-0.1250,0.0000,0.99841308593750,0.00744628906250,0.05535888671875,-0.00006103515625
1721764459.88,0,0,3,0,0.0600,0.0300,-0.4400,0.0000,0.0000,0.0000,0.99841308593750,0.00744628906250,0.05535888671875,-0.00006103515625
1721764459.89,0,0,3,0,0.0600,0.0300,-0.4600,-0.0625,0.2500,0.0000,0.99841308593750,0.00744628906250,0.05535888671875,-0.00006103515625
1721764459.90,0,0,3,0,0.0800,-0.0300,-0.4500,0.0000,0.0000,0.0000,0.99841308593750,0.00744628906250,0.05535888671875,-0.00006103515625
1721764459.91,0,0,3,0,0.0700,-0.0100,-0.4300,0.0000,0.0000,0.0000,0.99841308593750,0.00744628906250,0.05535888671875,-0.00006103515625
1721764459.92,0,0,3,0,0.0500,0.0000,-0.4200,-0.1250,0.1250,0.0000,0.99841308593750,0.00744628906250,0.05535888671875,-0.00006103515625
1721764459.93,0,0,3,0,0.0700,-0.0300,-0.4700,0.0000,0.0625,0.0000,0.99841308593750,0.00744628906250,0.05535888671875,-0.00006103515625
1721764459.94,0,0,3,0,0.0500,0.0000,-0.4100,0.0625,-0.0625,0.0000,0.99841308593750,0.00744628906250,0.05535888671875,-0.00006103515625
1721764459.95,0,0,3,0,0.0500,0.0100,-0.4600,-0.0625,0.1250,-0.0625,0.99841308593750,0.00744628906250,0.05535888671875,-0.00006103515625
1721764459.96,0,0,3,0,0.0700,0.0000,-0.4300,-0.0625,-0.0625,0.0000,0.99841308593750,0.00744628906250,0.05535888671875,-0.00006103515625
1721764459.97,0,0,3,0,0.0500,0.0000,-0.4200,0.0000,-0.1250,0.0000,0.99841308593750,0.00744628906250,0.05535888671875,-0.00006103515625
1721764459.98,0,0,3,0,0.0600,0.0200,-0.4300,-0.0625,0.0000,0.0625,0.99841308593750,0.00744628906250,0.05529785156250,-0.00006103515625
1721764459.99,0,0,3,0,0.0500,0.0000,-0.4800,0.0000,0.0625,0.0000,0.99841308593750,0.00744628906250,0.05529785156250,-0.00006103515625
1721764460.00,0,0,3,0,0.0600,-0.0100,-0.4300,0.0000,-0.3125,0.0000,0.99841308593750,0.00744628906250,0.05529785156250,-0.00006103515625
1721764460.01,0,0,3,0,0.0900,-0.0300,-0.4200,0.0000,-0.0625,0.0000,0.99841308593750,0.00744628906250,0.05529785156250,-0.00006103515625
1721764460.02,0,0,3,0,0.0600,-0.0100,-0.4500,-0.0625,0.1250,0.0000,0.99841308593750,0.00744628906250,0.05529785156250,-0.00006103515625
1721764460.03,0,0,3,0,0.0600,-0.0200,-0.4400,0.0625,0.0000,-0.0625,0.99841308593750,0.00744628906250,0.05529785156250,-0.00006103515625
1721764460.04,0,0,3,0,0.0400,0.0000,-0.4400,0.0000,0.0625,0.0000,0.99841308593750,0.00744628906250,0.05529785156250,-0.00006103515625
1721764460.05,0,0,3,0,0.0500,0.0000,-0.4700,-0.0625,0.1875,0.0000,0.99841308593750,0.00744628906250,0.05529785156250,-0.00006103515625
1721764460.06,0,0,3,0,0.0600,0.0100,-0.4300,0.0000,0.0000,0.0000,0.99841308593750,0.00744628906250,0.05529785156250,-0.00006103515625
1721764460.07,0,0,3,0,0.0500,0.0000,-0.4300,0.0000,0.0625,0.0000,0.99841308593750,0.00744628906250,0.05529785156250,-0.00006103515625
1721764460.08,0,0,3,0,0.0700,0.0000,-0.4200,-0.0625,0.0000,0.0000,0.99841308593750,0.00744628906250,0.05529785156250,-0.00006103515625
1721764460.09,0,0,3,0,0.0600,0.0100,-0.4500,0.0000,0.0000,0.0000,0.99841308593750,0.00744628906250,0.05529785156250,-0.00006103515625
1721764460.10,0,0,3,0,0.0700,-0.0100,-0.4500,0.0000,0.0000,0.0000,0.99841308593750,0.00744628906250,0.05529785156250,-0.00006103515625
1721764460.11,0,0,3,0,0.0700,-0.0200,-0.4200,-0.0625,0.1250,0.0000,0.99841308593750,0.00744628906250,0.05529785156250,-0.00006103515625
1721764460.12,0,0,3,0,0.0700,0.0000,-0.4500,0.0000,0.0000,0.0000,0.99841308593750,0.00744628906250,0.05529785156250,-0.00006103515625
1721764460.13,0,0,3,0,0.0600,0.0000,-0.4700,0.0000,-0.0625,0.0625,0.99841308593750,0.00744628906250,0.05529785156250,-0.00006103515625
1721764460.14,0,0,3,0,0.0600,0.0000,-0.4600,0.0000,0.0000,-0.0625,0.99841308593750,0.00744628906250,0.05529785156250,-0.00006103515625
1721764460.15,0,0,3,0,0.0500,0.0000,-0.4700,0.0000,0.0000,0.0000,0.99841308593750,0.00744628906250,0.05529785156250,-0.00006103515625
1721764460.16,0,0,3,0,0.0700,0.0100,-0.4300,0.0000,-0.0625,0.0000,0.99841308593750,0.00744628906250,0.05529785156250,-0.00006103515625
1721764460.17,0,0,3,0,0.0500,0.0000,-0.4200,0.0000,0.0000,0.0000,0.99841308593750,0.00744628906250,0.05529785156250,-0.00006103515625
1721764460.18,0,0,3,0,0.0500,0.0100,-0.4600,0.0000,0.1250,0.0000,0.99841308593750,0.00744628906250,0.05529785156250,-0.00006103515625
1721764460.19,0,0,3,0,0.0700,0.0000,-0.4700,0.0000,0.0000,0.0000,0.99841308593750,0.00744628906250,0.05529785156250,-0.00006103515625
1721764460.20,0,0,3,0,0.0700,0.0100,-0.4200,0.0000,0.0000,0.0000,0.99841308593750,0.00744628906250,0.05529785156250,-0.00006103515625
1721764460.21,0,0,3,0,0.0600,-0.0100,-0.4400,0.0000,0.0625,0.0000,0.99841308593750,0.00744628906250,0.05529785156250,-0.00006103515625
1721764460.22,0,0,3,0,0.0500,-0.0200,-0.4200,0.0625,0.0000,0.0000,0.99841308593750,0.00744628906250,0.05529785156250,-0.00006103515625
1721764460.23,0,0,3,0,0.0700,0.0000,-0.4400,0.0000,-0.0625,0.0000,0.99841308593750,0.00744628906250,0.05529785156250,-0.00006103515625
1721764460.24,0,0,3,0,0.0700,-0.0100,-0.4600,0.0625,0.2500,0.0000,0.99841308593750,0.00744628906250,0.05529785156250,-0.00006103515625
1721764460.25,0,0,3,0,0.0600,0.0100,-0.4400,-0.0625,0.1875,-0.1250,0.99841308593750,0.00744628906250,0.05529785156250,-0.00006103515625
1721764460.26,0,0,3,0,0.0700,0.0200,-0.4400,0.0625,-0.2500,0.0000,0.99841308593750,0.00744628906250,0.05529785156250,-0.00006103515625
1721764460.27,0,0,3,0,0.0700,0.0200,-0.4200,0.0625,0.0000,0.0000,0.99841308593750,0.00744628906250,0.05529785156250,-0.00006103515625
1721764460.28,0,0,3,0,0.0700,0.0200,-0.4300,0.0000,0.0000,0.0000,0.99841308593750,0.00744628906250,0.05529785156250,-0.00006103515625
1721764460.29,0,0,3,0,0.0600,0.0000,-0.4600,0.0000,-0.2500,0.0625,0.99841308593750,0.00744628906250,0.05529785156250,-0.00006103515625
1721764460.30,0,0,3,0,0.0800,0.0100,-0.4200,0.0000,-0.0625,0.0000,0.99841308593750,0.00744628906250,0.05529785156250,-0.00006103515625
1721764460.31,0,0,3,0,0.0600,0.0000,-0.4300,-0.1875,0.3125,0.0000,0.99841308593750,0.00744628906250,0.05529785156250,-0.00006103515625
1721764460.32,0,0,3,0,0.0700,-0.0200,-0.4400,0.0000,0.0000,0.0000,0.99841308593750,0.00744628906250,0.05529785156250,-0.00006103515625
1721764460.33,0,0,3,0,0.0600,-0.0100,-0.4400,0.0000,-0.2500,0.0000,0.99841308593750,0.00744628906250,0.05529785156250,-0.00006103515625
1721764460.34,0,0,3,0,0.0600,0.0000,-0.4400,0.0000,0.1250,0.0000,0.99841308593750,0.00744628906250,0.05529785156250,-0.00006103515625
1721764460.35,0,0,3,0,0.0400,0.0100,-0.4600,0.0000,0.1250,-0.0625,0.99841308593750,0.00750732421875,0.05529785156250,-0.00006103515625
1721764460.36,0,0,3,0,0.0600,0.0000,-0.4500,0.0000,0.0000,0.0000,0.99841308593750,0.00750732421875,0.05529785156250,-0.00006103515625
1721764460.37,0,0,3,0,0.0500,0.0100,-0.4200,0.0000,0.0000,0.0000,0.99841308593750,0.00750732421875,0.05529785156250,-0.00006103515625
1721764460.38,0,0,3,0,0.0600,0.0100,-0.4600,0.0000,0.0625,0.0000,0.99841308593750,0.00750732421875,0.05529785156250,-0.00006103515625
1721764460.39,0,0,3,0,0.0700,0.0200,-0.4900,0.0000,0.0000,0.0625,0.99841308593750,0.00750732421875,0.05529785156250,-0.00006103515625
1721764460.40,0,0,3,0,0.0500,0.0100,-0.4600,0.0000,-0.0625,0.0000,0.99841308593750,0.00750732421875,0.05529785156250,-0.00006103515625
1721764460.41,0,0,3,0,0.0500,0.0000,-0.4200,0.0000,0.0000,0.0000,0.99841308593750,0.00750732421875,0.05529785156250,-0.00006103515625
1721764460.42,0,0,3,0,0.0600,0.0000,-0.4300,0.0000,0.0000,-0.0625,0.99841308593750,0.00750732421875,0.05529785156250,-0.00006103515625
1721764460.43,0,0,3,0,0.0800,0.0000,-0.4300,0.0000,0.0000,0.0000,0.99841308593750,0.00750732421875,0.05529785156250,-0.00006103515625
1721764460.44,0,0,3,0,0.0700,0.0000,-0.4400,0.0000,0.0000,0.0000,0.99841308593750,0.00750732421875,0.05529785156250,-0.00006103515625
1721764460.45,0,0,3,0,0.0500,-0.0100,-0.4500,0.0625,-0.0625,0.0000,0.99841308593750,0.00750732421875,0.05529785156250,-0.00006103515625
1721764460.46,0,0,3,0,0.0700,-0.0100,-0.4300,0.0000,0.0000,-0.0625,0.99841308593750,0.00750732421875,0.05529785156250,-0.00006103515625
1721764460.47,0,0,3,0,0.0500,0.0000,-0.4300,0.0000,0.0000,0.0000,0.99841308593750,0.00750732421875,0.05529785156250,-0.00006103515625
1721764460.48,0,0,3,0,0.0400,0.0000,-0.4400,0.0000,0.0625,-0.0625,0.99841308593750,0.00750732421875,0.05529785156250,-0.00006103515625
1721764460.49,0,0,3,0,0.0300,0.0200,-0.4400,0.0000,-0.1250,0.0000,0.99841308593750,0.00750732421875,0.05529785156250,-0.00006103515625
1721764460.50,0,0,3,0,0.0500,0.0100,-0.4300,0.0000,0.0000,0.0625,0.99841308593750,0.00750732421875,0.05529785156250,-0.00006103515625
1721764460.51,0,0,3,0,0.0600,0.0000,-0.4300,0.0000,0.0000,0.0000,0.99841308593750,0.00750732421875,0.05529785156250,-0.00006103515625
1721764460.52,0,0,3,0,0.0700,-0.0100,-0.4400,0.0000,0.1250,0.0000,0.99841308593750,0.00750732421875,0.05529785156250,-0.00006103515625
1721764460.53,0,0,3,0,0.0800,0.0000,-0.4400,0.0000,0.0000,0.0000,0.99841308593750,0.00750732421875,0.05529785156250,-0.00006103515625
1721764460.54,0,0,3,0,0.0500,-0.0100,-0.4500,0.0000,0.0000,0.0000,0.99841308593750,0.00750732421875,0.05529785156250,-0.00006103515625
1721764460.55,0,0,3,0,0.0500,-0.0200,-0.4500,0.0000,0.0000,0.0000,0.99841308593750,0.00750732421875,0.05529785156250,-0.00006103515625
1721764460.56,0,0,3,0,0.0700,0.0000,-0.4400,0.0000,0.0000,0.0625,0.99841308593750,0.00750732421875,0.05529785156250,-0.00006103515625
1721764460.57,0,0,3,0,0.0500,0.0000,-0.4000,0.0000,0.0625,0.0000,0.99841308593750,0.00750732421875,0.05529785156250,-0.00006103515625
1721764460.58,0,0,3,0,0.0800,0.0000,-0.4200,0.0000,0.0000,0.0000,0.99841308593750,0.00750732421875,0.05529785156250,-0.00006103515625
1721764460.59,0,0,3,0,0.0400,0.0000,-0.4400,0.0000,0.0000,0.0000,0.99841308593750,0.00750732421875,0.05529785156250,-0.00006103515625
1721764460.60,0,0,3,0,0.0600,0.0100,-0.4400,-0.0625,0.3125,0.0000,0.99841308593750,0.00750732421875,0.05529785156250,-0.00006103515625
1721764460.61,0,0,3,0,0.0600,0.0000,-0.4300,0.0000,0.1250,0.0625,0.99841308593750,0.00750732421875,0.05529785156250,-0.00006103515625
1721764460.62,0,0,3,0,0.0400,0.0000,-0.4000,0.0000,0.0000,0.0000,0.99841308593750,0.00750732421875,0.05529785156250,-0.00006103515625
1721764460.63,0,0,3,0,0.0600,0.0000,-0.4400,-0.0625,0.0000,0.0000,0.99841308593750,0.00750732421875,0.05529785156250,-0.00006103515625
1721764460.64,0,0,3,0,0.0500,-0.0100,-0.4400,0.0000,0.0625,0.0000,0.99841308593750,0.00750732421875,0.05529785156250,-0.00006103515625
1721764460.65,0,0,3,0,0.0800,0.0000,-0.4400,0.1250,-0.1250,0.0000,0.99841308593750,0.00750732421875,0.05529785156250,-0.00006103515625
1721764460.66,0,0,3,0,0.0800,-0.0100,-0.4300,0.0000,0.0000,0.0000,0.99841308593750,0.00750732421875,0.05529785156250,-0.00006103515625
1721764460.67,0,0,3,0,0.0600,0.0100,-0.4400,0.0000,0.0000,0.0000,0.99841308593750,0.00750732421875,0.05529785156250,-0.00006103515625
1721764460.68,0,0,3,0,0.0700,0.0000,-0.4700,0.1875,-0.1250,0.0000,0.99841308593750,0.00750732421875,0.05529785156250,-0.00006103515625
1721764460.69,0,0,3,0,0.0600,0.0100,-0.4400,0.0000,0.0000,0.0000,0.99841308593750,0.00750732421875,0.05523681640625,-0.00006103515625
1721764460.70,0,0,3,0,0.0500,0.0100,-0.4500,-0.0625,0.0000,-0.0625,0.99847412109375,0.00750732421875,0.05523681640625,-0.00006103515625
1721764460.71,0,0,3,0,0.0500,0.0000,-0.4300,-0.0625,0.0000,0.0000,0.99847412109375,0.00750732421875,0.05523681640625,-0.00006103515625
1721764460.72,0,0,3,0,0.0800,-0.0100,-0.4700,0.0000,0.1250,0.0000,0.99847412109375,0.00750732421875,0.05523681640625,-0.00006103515625
1721764460.73,0,0,3,0,0.0500,-0.0100,-0.4500,0.0000,0.1250,0.0000,0.99847412109375,0.00750732421875,0.05523681640625,-0.00006103515625
1721764460.74,0,0,3,0,0.0700,0.0000,-0.4500,0.0000,-0.2500,0.0000,0.99847412109375,0.00750732421875,0.05523681640625,-0.00006103515625
1721764460.75,0,0,3,0,0.0700,0.0000,-0.4600,0.0625,-0.0625,0.0000,0.99847412109375,0.00750732421875,0.05523681640625,-0.00006103515625
1721764460.76,0,0,3,0,0.0600,0.0000,-0.4600,-0.0625,0.0000,0.0625,0.99847412109375,0.00750732421875,0.05523681640625,-0.00006103515625
1721764460.77,0,0,3,0,0.0600,0.0000,-0.4400,0.0000,-0.0625,0.0000,0.99847412109375,0.00750732421875,0.05523681640625,-0.00006103515625
1721764460.78,0,0,3,0,0.0800,0.0000,-0.4300,0.0000,-0.0625,0.0000,0.99847412109375,0.00750732421875,0.05523681640625,-0.00006103515625
1721764460.79,0,0,3,0,0.0600,0.0100,-0.4500,0.0000,0.1250,0.0000,0.99847412109375,0.00750732421875,0.05523681640625,-0.00006103515625
1721764460.80,0,0,3,0,0.0600,0.0100,-0.4400,0.0000,0.0000,0.0000,0.99847412109375,0.00750732421875,0.05523681640625,-0.00006103515625
1721764460.81,0,0,3,0,0.0700,0.0000,-0.4300,0.1875,-0.2500,-0.0625,0.99847412109375,0.00750732421875,0.05523681640625,-0.00006103515625
1721764460.82,0,0,3,0,0.0200,-0.0100,-0.4600,-0.1250,0.1875,0.0000,0.99847412109375,0.00750732421875,0.05523681640625,-0.00006103515625
1721764460.83,0,0,3,0,0.0300,-0.0100,-0.4400,-0.1250,0.1875,0.0000,0.99847412109375,0.00750732421875,0.05523681640625,-0.00006103515625
1721764460.84,0,0,3,0,0.0500,0.0000,-0.4700,0.1250,-0.2500,0.0000,0.99847412109375,0.00750732421875,0.05523681640625,-0.00006103515625
1721764460.85,0,0,3,0,0.0500,-0.0100,-0.4700,0.0000,0.3125,0.0000,0.99847412109375,0.00750732421875,0.05523681640625,-0.00006103515625
1721764460.86,0,0,3,0,0.0700,0.0000,-0.4400,-0.2500,-0.0625,0.0000,0.99847412109375,0.00750732421875,0.05523681640625,-0.00006103515625
1721764460.87,0,0,3,0,0.0800,-0.0100,-0.4900,0.4375,-0.4375,0.0000,0.99847412109375,0.00750732421875,0.05523681640625,-0.00006103515625
1721764460.88,0,0,3,0,0.0400,0.0000,-0.4700,-0.1875,0.8750,0.0625,0.99841308593750,0.00750732421875,0.05535888671875,-0.00006103515625
1721764460.89,0,0,3,0,0.0700,0.0200,-0.4000,-0.2500,-0.1875,0.0000,0.99841308593750,0.00750732421875,0.05535888671875,-0.00006103515625
1721764460.90,0,0,3,0,0.0500,0.0000,-0.4800,0.7500,-0.7500,-0.0625,0.99841308593750,0.00756835937500,0.05523681640625,-0.00006103515625
1721764460.91,0,0,3,0,0.0700,0.0000,-0.4900,-0.4375,0.9375,0.0000,0.99841308593750,0.00756835937500,0.05535888671875,-0.00006103515625
1721764460.92,0,0,3,0,0.0600,0.0000,-0.4000,-0.1875,0.2500,0.0000,0.99841308593750,0.00756835937500,0.05535888671875,-0.00006103515625
1721764460.93,0,0,3,0,0.0800,0.0000,-0.3400,0.7500,-1.0000,0.0000,0.99841308593750,0.00762939453125,0.05523681640625,-0.00006103515625
1721764460.94,0,0,3,0,0.0600,0.0000,-0.5300,-0.3125,0.1875,0.0000,0.99841308593750,0.00762939453125,0.05523681640625,-0.00006103515625
1721764460.95,0,0,3,0,0.0300,-0.0200,-0.4600,-0.1875,0.9375,0.0000,0.99841308593750,0.00762939453125,0.05535888671875,-0.00006103515625
1721764460.96,0,0,3,0,0.0600,-0.0100,-0.3700,0.1250,-0.8125,0.0000,0.99841308593750,0.00762939453125,0.05523681640625,-0.00006103515625
1721764460.97,0,0,3,0,0.0800,0.0000,-0.4300,0.1250,-0.1875,0.0000,0.99841308593750,0.00762939453125,0.05523681640625,-0.00006103515625
1721764460.98,0,0,3,0,0.0500,0.0000,-0.4400,-0.3750,1.0000,0.0000,0.99841308593750,0.00762939453125,0.05535888671875,-0.00006103515625
1721764460.99,0,0,3,0,0.0700,0.0100,-0.4000,0.0000,-0.5625,0.0000,0.99841308593750,0.00762939453125,0.05529785156250,-0.00006103515625
1721764461.00,0,0,3,0,0.0600,0.0100,-0.4100,0.5625,-0.5625,0.0000,0.99841308593750,0.00769042968750,0.05523681640625,-0.00006103515625
1721764461.01,0,0,3,0,0.0600,-0.0100,-0.4700,-0.5000,0.8750,0.0000,0.99841308593750,0.00769042968750,0.05529785156250,-0.00006103515625
1721764461.02,0,0,3,0,0.0700,0.0000,-0.3700,0.0000,0.1875,0.0000,0.99841308593750,0.00769042968750,0.05529785156250,-0.00006103515625
1721764461.03,0,0,3,0,0.0600,0.0000,-0.4000,0.3750,-0.6250,0.0000,0.99841308593750,0.00769042968750,0.05523681640625,-0.00006103515625
1721764461.04,0,0,3,0,0.0600,0.0000,-0.4900,-0.3125,0.5000,0.0000,0.99841308593750,0.00769042968750,0.05523681640625,-0.00006103515625
1721764461.05,0,0,3,0,0.1000,0.0000,-0.4200,-0.0625,0.5625,0.0000,0.99841308593750,0.00769042968750,0.05529785156250,-0.00006103515625
1721764461.06,0,0,3,0,0.0500,-0.0400,-0.3900,0.1250,-0.8125,0.0625,0.99847412109375,0.00769042968750,0.05523681640625,-0.00006103515625
1721764461.07,0,0,3,0,0.0500,-0.0100,-0.4700,0.0000,-0.0625,0.0000,0.99847412109375,0.00769042968750,0.05523681640625,-0.00006103515625
1721764461.08,0,0,3,0,0.0600,-0.0100,-0.4700,-0.3125,0.8125,0.0000,0.99841308593750,0.00769042968750,0.05529785156250,-0.00006103515625
1721764461.09,0,0,3,0,0.0600,0.0100,-0.3900,0.0625,-0.3750,-0.0625,0.99841308593750,0.00769042968750,0.05529785156250,-0.00006103515625
1721764461.10,0,0,3,0,0.0500,0.0100,-0.4700,0.3125,-0.1875,0.0000,0.99841308593750,0.00769042968750,0.05529785156250,-0.00006103515625
1721764461.11,0,0,3,0,0.0600,0.0100,-0.4700,-0.4375,0.6875,0.0000,0.99841308593750,0.00769042968750,0.05535888671875,-0.00006103515625
1721764461.12,0,0,3,0,0.0800,0.0000,-0.4200,0.0000,-0.0625,0.0000,0.99841308593750,0.00769042968750,0.05535888671875,-0.00006103515625
1721764461.13,0,0,3,0,0.0500,0.0000,-0.4400,0.3125,-0.3125,0.0000,0.99841308593750,0.00769042968750,0.05535888671875,-0.00006103515625
1721764461.14,0,0,3,0,0.0700,-0.0200,-0.5000,-0.2500,0.5625,0.0000,0.99841308593750,0.00769042968750,0.05541992187500,-0.00006103515625
1721764461.15,0,0,3,0,0.0700,-0.0400,-0.4300,-0.0625,0.1250,0.0000,0.99841308593750,0.00769042968750,0.05541992187500,-0.00006103515625
1721764461.16,0,0,3,0,0.0800,0.0000,-0.4000,0.1875,-0.5000,0.0000,0.99841308593750,0.00769042968750,0.05541992187500,-0.00006103515625
1721764461.17,0,0,3,0,0.0600,-0.0100,-0.4600,-0.0625,0.1875,-0.0625,0.99841308593750,0.00769042968750,0.05541992187500,-0.00006103515625
1721764461.18,0,0,3,0,0.0700,-0.0100,-0.4400,-0.1875,0.5000,0.0000,0.99841308593750,0.00769042968750,0.05541992187500,-0.00006103515625
1721764461.19,0,0,3,0,0.0800,-0.0100,-0.4400,0.1875,-0.4375,0.0000,0.99841308593750,0.00769042968750,0.05541992187500,-0.00006103515625
1721764461.20,0,0,3,0,0.0700,0.0000,-0.4100,0.0000,0.0000,0.0000,0.99841308593750,0.00769042968750,0.05541992187500,-0.00006103515625
1721764461.21,0,0,3,0,0.0700,0.0000,-0.4200,-0.1875,0.3750,0.0000,0.99841308593750,0.00769042968750,0.05541992187500,-0.00006103515625
1721764461.22,0,0,3,0,0.0600,0.0000,-0.4600,0.1250,-0.4375,0.0000,0.99841308593750,0.00769042968750,0.05541992187500,-0.00006103515625
1721764461.23,0,0,3,0,0.0300,-0.0100,-0.4400,0.0000,0.0000,0.0625,0.99841308593750,0.00769042968750,0.05541992187500,-0.00006103515625
1721764461.24,0,0,3,0,0.0700,0.0100,-0.4400,-0.2500,-0.0625,0.0625,0.99841308593750,0.00769042968750,0.05541992187500,-0.00006103515625
1721764461.25,0,0,3,0,0.0700,0.0000,-0.4800,0.5000,0.0000,0.0000,0.99841308593750,0.00769042968750,0.05541992187500,-0.00006103515625
1721764461.26,0,0,3,0,0.0500,-0.0100,-0.4500,-0.4375,0.8125,0.0000,0.99841308593750,0.00769042968750,0.05548095703125,-0.00006103515625
1721764461.27,0,0,3,0,0.0700,0.0000,-0.4200,-0.0625,-0.1250,0.0000,0.99841308593750,0.00769042968750,0.05548095703125,-0.00006103515625
1721764461.28,0,0,3,0,0.0600,-0.0300,-0.4500,0.6250,-0.1250,0.0000,0.99841308593750,0.00775146484375,0.05548095703125,-0.00006103515625
1721764461.29,0,0,3,0,0.0400,-0.0100,-0.4600,-0.6875,0.5000,0.0000,0.99841308593750,0.00769042968750,0.05548095703125,-0.00006103515625
1721764461.30,0,0,3,0,0.0800,0.0000,-0.4200,0.1875,-0.0625,0.0000,0.99841308593750,0.00769042968750,0.05548095703125,-0.00006103515625
1721764461.31,0,0,3,0,0.0700,0.0000,-0.4300,0.3750,-0.5000,0.0000,0.99841308593750,0.00769042968750,0.05548095703125,-0.00006103515625
1721764461.32,0,0,3,0,0.0500,-0.0100,-0.5200,-0.4375,0.5625,0.0000,0.99841308593750,0.00769042968750,0.05554199218750,-0.00006103515625
1721764461.33,0,0,3,0,0.0600,0.0200,-0.4300,0.1250,0.3125,0.0000,0.99841308593750,0.00769042968750,0.05554199218750,-0.00006103515625
1721764461.34,0,0,3,0,0.0700,-0.0100,-0.3700,0.0625,-0.8125,0.0000,0.99841308593750,0.00769042968750,0.05548095703125,-0.00006103515625
1721764461.35,0,0,3,0,0.0600,0.0100,-0.4300,0.0000,0.1875,0.0000,0.99841308593750,0.00769042968750,0.05548095703125,-0.00006103515625
1721764461.36,0,0,3,0,0.0700,-0.0100,-0.4100,-0.3125,0.5625,0.0000,0.99841308593750,0.00769042968750,0.05548095703125,-0.00006103515625
1721764461.37,0,0,3,0,0.0700,-0.0100,-0.3700,0.0625,-0.3750,0.0000,0.99841308593750,0.00769042968750,0.05548095703125,-0.00006103515625
1721764461.38,0,0,3,0,0.0600,-0.0200,-0.4200,0.1875,0.0000,0.0000,0.99841308593750,0.00769042968750,0.05548095703125,-0.00006103515625
1721764461.39,0,0,3,0,0.0600,-0.0100,-0.4900,-0.5000,0.5625,0.0000,0.99841308593750,0.00769042968750,0.05554199218750,-0.00006103515625
1721764461.40,0,0,3,0,0.0600,0.0000,-0.4100,0.1250,-0.3125,0.0000,0.99841308593750,0.00769042968750,0.05554199218750,-0.00006103515625
1721764461.41,0,0,3,0,0.0600,0.0000,-0.4100,0.1875,-0.3125,0.0000,0.99841308593750,0.00769042968750,0.05554199218750,-0.00006103515625
1721764461.42,0,0,3,0,0.0800,-0.0200,-0.4500,-0.3125,0.5000,0.0000,0.99841308593750,0.00769042968750,0.05554199218750,-0.00006103515625
1721764461.43,0,0,3,0,0.0700,0.0000,-0.4000,0.0000,0.1250,0.0000,0.99841308593750,0.00769042968750,0.05554199218750,-0.00006103515625
1721764461.44,0,0,3,0,0.0800,0.0000,-0.4400,0.1875,-0.3125,-0.0625,0.99841308593750,0.00769042968750,0.05554199218750,-0.00006103515625
1721764461.45,0,0,3,0,0.0800,0.0000,-0.4700,0.0000,0.3125,0.0625,0.99841308593750,0.00769042968750,0.05554199218750,-0.00006103515625
1721764461.46,0,0,3,0,0.0500,-0.0100,-0.4500,-0.1875,0.0000,0.1250,0.99841308593750,0.00769042968750,0.05554199218750,-0.00006103515625
1721764461.47,0,0,3,0,0.0600,0.0000,-0.4300,0.1875,-0.3750,0.0000,0.99841308593750,0.00769042968750,0.05554199218750,-0.00006103515625
1721764461.48,0,0,3,0,0.0400,-0.0300,-0.4400,0.0000,0.1250,0.0000,0.99841308593750,0.00769042968750,0.05554199218750,-0.00006103515625
1721764461.49,0,0,3,0,0.0700,-0.0100,-0.4400,-0.2500,0.0625,0.0000,0.99841308593750,0.00769042968750,0.05554199218750,-0.00006103515625
1721764461.50,0,0,3,0,0.0800,-0.0100,-0.4500,0.1875,-0.1250,0.0000,0.99841308593750,0.00769042968750,0.05554199218750,-0.00006103515625
1721764461.51,0,0,3,0,0.0600,-0.0300,-0.4600,-0.0625,0.0000,-0.0625,0.99841308593750,0.00769042968750,0.05554199218750,-0.00006103515625
1721764461.52,0,0,3,0,0.0600,-0.0100,-0.4600,-0.1250,0.3125,0.0000,0.99841308593750,0.00769042968750,0.05554199218750,-0.00006103515625
1721764461.53,0,0,3,0,0.0700,-0.0200,-0.4300,0.1250,-0.0625,0.0000,0.99841308593750,0.00769042968750,0.05554199218750,-0.00006103515625
1721764461.54,0,0,3,0,0.0800,-0.0200,-0.4600,0.0000,-0.2500,0.0000,0.99841308593750,0.00769042968750,0.05554199218750,-0.00006103515625
1721764461.55,0,0,3,0,0.0400,0.0000,-0.4400,-0.1250,0.2500,0.0000,0.99841308593750,0.00769042968750,0.05554199218750,-0.00006103515625
1721764461.56,0,0,3,0,0.0900,-0.0100,-0.4100,0.0000,0.0000,0.0000,0.99841308593750,0.00769042968750,0.05554199218750,-0.00006103515625
1721764461.57,0,0,3,0,0.0700,0.0100,-0.4100,0.1250,-0.2500,0.1250,0.99841308593750,0.00769042968750,0.05554199218750,-0.00006103515625
1721764461.58,0,0,3,0,0.0600,0.0000,-0.4400,0.0000,0.0000,0.0000,0.99841308593750,0.00769042968750,0.05554199218750,-0.00006103515625
1721764461.59,0,0,3,0,0.0600,-0.0100,-0.4500,-0.0625,0.1875,0.0000,0.99841308593750,0.00769042968750,0.05554199218750,-0.00006103515625
1721764461.60,0,0,3,0,0.0500,-0.0300,-0.4400,0.0000,0.0000,0.0000,0.99841308593750,0.00769042968750,0.05554199218750,-0.00006103515625
1721764461.61,0,0,3,0,0.0700,-0.0100,-0.4400,0.0000,0.0000,0.0000,0.99841308593750,0.00769042968750,0.05554199218750,-0.00006103515625
1721764461.62,0,0,3,0,0.0500,-0.0100,-0.4400,0.0000,0.0625,0.0000,0.99841308593750,0.00769042968750,0.05554199218750,-0.00006103515625
1721764461.63,0,0,3,0,0.0700,-0.0100,-0.4600,0.0000,0.0000,0.0000,0.99841308593750,0.00769042968750,0.05554199218750,-0.00006103515625
1721764461.64,0,0,3,0,0.0700,0.0000,-0.4800,0.0000,0.0000,0.0000,0.99841308593750,0.00769042968750,0.05554199218750,-0.00006103515625
1721764461.65,0,0,3,0,0.0700,0.0000,-0.4500,0.0000,0.1250,0.0000,0.99841308593750,0.00769042968750,0.05554199218750,-0.00006103515625
1721764461.66,0,0,3,0,0.0600,-0.0100,-0.4400,0.0000,-0.1250,0.0000,0.99841308593750,0.00769042968750,0.05554199218750,-0.00006103515625
1721764461.67,0,0,3,0,0.0800,0.0000,-0.4200,0.0000,0.0000,0.0000,0.99841308593750,0.00769042968750,0.05554199218750,-0.00006103515625
1721764461.68,0,0,3,0,0.0700,0.0100,-0.4500,0.0000,0.0000,0.0000,0.99841308593750,0.00769042968750,0.05554199218750,-0.00006103515625
1721764461.69,0,0,3,0,0.0600,-0.0100,-0.4600,-0.0625,0.1250,0.0000,0.99841308593750,0.00769042968750,0.05554199218750,-0.00006103515625
1721764461.70,0,0,3,0,0.0700,-0.0300,-0.4400,0.0000,0.0000,0.0000,0.99841308593750,0.00769042968750,0.05554199218750,-0.00006103515625
1721764461.71,0,0,3,0,0.0600,-0.0100,-0.4600,0.0000,0.0000,0.0000,0.99841308593750,0.00769042968750,0.05554199218750,-0.00006103515625
1721764461.72,0,0,3,0,0.0700,0.0100,-0.4400,0.0000,0.0000,0.0000,0.99841308593750,0.00769042968750,0.05554199218750,-0.00006103515625
1721764461.73,0,0,3,0,0.0700,0.0000,-0.4500,0.0000,0.0000,0.0000,0.99841308593750,0.00769042968750,0.05554199218750,-0.00006103515625
1721764461.74,0,0,3,0,0.0700,0.0000,-0.4400,0.0000,0.0000,0.0000,0.99841308593750,0.00769042968750,0.05554199218750,-0.00006103515625
1721764461.75,0,0,3,0,0.0700,0.0100,-0.4200,0.0000,0.0000,0.0000,0.99841308593750,0.00769042968750,0.05554199218750,-0.00006103515625
1721764461.76,0,0,3,0,0.0600,0.0000,-0.4300,0.0000,-0.0625,0.0000,0.99841308593750,0.00769042968750,0.05554199218750,-0.00006103515625
1721764461.77,0,0,3,0,0.0600,0.0000,-0.4300,0.0000,0.0625,-0.1250,0.99841308593750,0.00769042968750,0.05554199218750,-0.00006103515625
1721764461.78,0,0,3,0,0.0700,-0.0100,-0.4500,0.0000,0.0625,0.0000,0.99841308593750,0.00769042968750,0.05554199218750,-0.00006103515625
1721764461.79,0,0,3,0,0.0800,-0.0200,-0.4700,0.0000,0.0000,0.0000,0.99841308593750,0.00769042968750,0.05554199218750,-0.00006103515625
1721764461.80,0,0,3,0,0.0800,0.0000,-0.4300,-0.0625,0.0000,0.0000,0.99841308593750,0.00769042968750,0.05554199218750,-0.00006103515625
1721764461.81,0,0,3,0,0.0500,-0.0200,-0.4500,0.0000,0.1875,0.0000,0.99841308593750,0.00769042968750,0.05554199218750,-0.00006103515625
1721764461.82,0,0,3,0,0.0700,-0.0300,-0.4400,0.0000,0.0000,0.0000,0.99841308593750,0.00769042968750,0.05554199218750,-0.00006103515625
1721764461.83,0,0,3,0,0.0600,-0.0100,-0.4500,0.0000,0.1250,0.0000,0.99841308593750,0.00769042968750,0.05554199218750,-0.00006103515625
1721764461.84,0,0,3,0,0.0900,0.0000,-0.4200,0.0000,0.0000,0.1250,0.99841308593750,0.00769042968750,0.05554199218750,-0.00006103515625
1721764461.85,0,0,3,0,0.0600,-0.0300,-0.4300,0.0000,-0.1250,0.0000,0.99841308593750,0.00769042968750,0.05554199218750,-0.00006103515625
1721764461.86,0,0,3,0,0.0600,0.0000,-0.4300,0.0000,0.0000,0.0000,0.99841308593750,0.00769042968750,0.05554199218750,-0.00006103515625
1721764461.87,0,0,3,0,0.0700,-0.0100,-0.4300,0.0000,0.0000,0.0000,0.99841308593750,0.00769042968750,0.05554199218750,-0.00006103515625
1721764461.88,0,0,3,0,0.0600,-0.0100,-0.4300,0.0000,0.0000,0.0000,0.99841308593750,0.00769042968750,0.05554199218750,-0.00006103515625
1721764461.89,0,0,3,0,0.0600,-0.0200,-0.4500,0.0625,0.0000,0.0000,0.99841308593750,0.00769042968750,0.05554199218750,-0.00006103515625
1721764461.90,0,0,3,0,0.0600,-0.0200,-0.4400,0.0000,0.0000,0.0000,0.99841308593750,0.00769042968750,0.05548095703125,-0.00006103515625
1721764461.91,0,0,3,0,0.1000,-0.0100,-0.4300,0.0000,0.0000,0.1250,0.99841308593750,0.00769042968750,0.05548095703125,-0.00006103515625
1721764461.92,0,0,3,0,0.0600,-0.0400,-0.4500,0.0000,0.0000,0.0000,0.99841308593750,0.00769042968750,0.05548095703125,-0.00006103515625
1721764461.93,0,0,3,0,0.0500,-0.0100,-0.4500,0.0000,0.3125,-0.0625,0.99841308593750,0.00769042968750,0.05548095703125,-0.00006103515625
1721764461.94,0,0,3,0,0.0700,0.0000,-0.4600,0.0000,0.0000,0.0000,0.99841308593750,0.00769042968750,0.05548095703125,-0.00006103515625
1721764461.95,0,0,3,0,0.0900,0.0000,-0.4400,-0.1250,0.0000,0.0000,0.99841308593750,0.00769042968750,0.05548095703125,-0.00006103515625
1721764461.96,0,0,3,0,0.0700,-0.0100,-0.4500,0.0000,0.0000,0.0000,0.99841308593750,0.00769042968750,0.05548095703125,-0.00006103515625
1721764461.97,0,0,3,0,0.0600,0.0100,-0.4300,0.0625,0.0000,-0.0625,0.99841308593750,0.00769042968750,0.05548095703125,-0.00006103515625
1721764461.98,0,0,3,0,0.0600,0.0000,-0.4400,0.0000,0.0000,0.0000,0.99841308593750,0.00769042968750,0.05548095703125,-0.00006103515625
1721764461.99,0,0,3,0,0.0700,0.0000,-0.4600,0.0000,0.0625,-0.0625,0.99841308593750,0.00769042968750,0.05548095703125,-0.00006103515625
1721764462.00,0,0,3,0,0.0800,-0.0100,-0.4500,0.0000,0.0625,0.0000,0.99841308593750,0.00769042968750,0.05548095703125,-0.00006103515625
1721764462.01,0,0,3,0,0.0800,-0.0100,-0.4600,0.0000,0.0000,0.0000,0.99841308593750,0.00769042968750,0.05548095703125,-0.00006103515625
1721764462.02,0,0,3,0,0.0600,-0.0400,-0.4200,0.0000,0.0000,0.0000,0.99841308593750,0.00769042968750,0.05548095703125,-0.00006103515625
1721764462.03,0,0,3,0,0.0600,-0.0300,-0.4500,0.0000,0.1875,0.0000,0.99841308593750,0.00769042968750,0.05548095703125,-0.00006103515625
1721764462.04,0,0,3,0,0.0700,0.0000,-0.4100,0.0000,-0.3125,0.0000,0.99841308593750,0.00769042968750,0.05548095703125,-0.00006103515625
1721764462.05,0,0,3,0,0.0800,-0.0200,-0.4300,0.0000,-0.0625,0.0000,0.99841308593750,0.00769042968750,0.05548095703125,-0.00006103515625
1721764462.06,0,0,3,0,0.0500,-0.0100,-0.4500,0.0000,0.3125,0.0000,0.99841308593750,0.00769042968750,0.05548095703125,-0.00006103515625
1721764462.07,0,0,3,0,0.0800,0.0000,-0.4200,0.0000,0.1250,0.0000,0.99841308593750,0.00769042968750,0.05548095703125,-0.00006103515625
1721764462.08,0,0,3,0,0.0600,0.0000,-0.4600,0.0000,-0.1250,0.0000,0.99841308593750,0.00769042968750,0.05548095703125,-0.00006103515625
1721764462.09,0,0,3,0,0.0500,0.0000,-0.4600,0.0000,0.1250,0.0000,0.99841308593750,0.00769042968750,0.05548095703125,-0.00006103515625
1721764462.10,0,0,3,0,0.0600,0.0000,-0.4400,0.0000,0.0000,0.0000,0.99841308593750,0.00769042968750,0.05548095703125,-0.00006103515625
1721764462.11,0,0,3,0,0.0700,0.0000,-0.4200,0.0000,-0.1875,-0.0625,0.99841308593750,0.00769042968750,0.05548095703125,-0.00006103515625
1721764462.12,0,0,3,0,0.0600,0.0000,-0.4600,0.0000,0.0000,0.0000,0.99841308593750,0.00769042968750,0.05548095703125,-0.00006103515625
1721764462.13,0,0,3,0,0.0800,0.0000,-0.4400,0.0000,0.0625,0.0000,0.99841308593750,0.00769042968750,0.05548095703125,-0.00006103515625
1721764462.14,0,0,3,0,0.0700,-0.0400,-0.4600,0.0000,-0.1250,-0.1250,0.99841308593750,0.00769042968750,0.05548095703125,-0.00006103515625
1721764462.15,0,0,3,0,0.0600,-0.0200,-0.4400,0.0000,0.0625,0.0000,0.99841308593750,0.00769042968750,0.05548095703125,-0.00006103515625
1721764462.16,0,0,3,0,0.0700,0.0000,-0.4300,0.0000,0.0000,0.0000,0.99841308593750,0.00769042968750,0.05548095703125,-0.00006103515625
1721764462.17,0,0,3,0,0.0700,0.0000,-0.4200,0.0625,-0.1250,0.0000,0.99841308593750,0.00769042968750,0.05548095703125,-0.00006103515625
1721764462.18,0,0,3,0,0.0600,0.0000,-0.4200,0.0000,-0.0625,0.0625,0.99841308593750,0.00769042968750,0.05548095703125,-0.00006103515625
1721764462.19,0,0,3,0,0.0600,0.0000,-0.4500,-0.1250,0.1250,0.0000,0.99841308593750,0.00769042968750,0.05548095703125,-0.00006103515625
1721764462.20,0,0,3,0,0.0800,-0.0200,-0.4200,0.0000,0.0000,0.0000,0.99841308593750,0.00769042968750,0.05548095703125,-0.00006103515625
1721764462.21,0,0,3,0,0.0800,-0.0300,-0.4400,0.0000,-0.1250,0.0000,0.99841308593750,0.00769042968750,0.05548095703125,-0.00006103515625
1721764462.22,0,0,3,0,0.0700,0.0000,-0.4600,0.0000,0.0625,0.0000,0.99841308593750,0.00769042968750,0.05548095703125,-0.00006103515625
1721764462.23,0,0,3,0,0.0600,-0.0200,-0.4600,0.0000,0.0000,0.0000,0.99841308593750,0.00769042968750,0.05548095703125,-0.00006103515625
1721764462.24,0,0,3,0,0.0500,-0.0200,-0.4400,0.0000,-0.1250,0.0000,0.99841308593750,0.00769042968750,0.05548095703125,-0.00006103515625
1721764462.25,0,0,3,0,0.0800,-0.0200,-0.4300,0.0000,0.0000,0.0000,0.99841308593750,0.00769042968750,0.05548095703125,-0.00006103515625
1721764462.26,0,0,3,0,0.0300,-0.0200,-0.4500,0.0000,0.0000,-0.0625,0.99841308593750,0.00769042968750,0.05548095703125,-0.00006103515625
1721764462.27,0,0,3,0,0.0700,0.0000,-0.4300,0.0000,0.0000,0.0625,0.99841308593750,0.00769042968750,0.05548095703125,-0.00006103515625
1721764462.28,0,0,3,0,0.0800,0.0200,-0.4500,0.0625,0.0000,0.0000,0.99841308593750,0.00769042968750,0.05548095703125,-0.00006103515625
1721764462.29,0,0,3,0,0.0600,0.0000,-0.4600,0.0000,0.1250,0.0000,0.99841308593750,0.00769042968750,0.05548095703125,-0.00006103515625
1721764462.30,0,0,3,0,0.0600,-0.0100,-0.4600,0.0000,0.2500,0.0000,0.99841308593750,0.00769042968750,0.05548095703125,-0.00006103515625
1721764462.31,0,0,3,0,0.0600,-0.0100,-0.4600,0.0000,0.0000,0.0000,0.99841308593750,0.00769042968750,0.05548095703125,-0.00006103515625
1721764462.32,0,0,3,0,0.0700,-0.0200,-0.4400,0.0625,-0.0625,0.0000,0.99841308593750,0.00769042968750,0.05548095703125,-0.00006103515625
1721764462.33,0,0,3,0,0.0700,-0.0200,-0.4200,0.0000,0.0000,0.0000,0.99841308593750,0.00769042968750,0.05548095703125,-0.00006103515625
1721764462.34,0,0,3,0,0.0800,-0.0200,-0.4400,-0.0625,0.0625,-0.0625,0.99841308593750,0.00769042968750,0.05548095703125,-0.00006103515625
1721764462.35,0,0,3,0,0.0700,-0.0100,-0.4300,0.0000,-0.0625,0.0000,0.99841308593750,0.00769042968750,0.05548095703125,-0.00006103515625
1721764462.36,0,0,3,0,0.0500,-0.0100,-0.4400,0.0000,0.3125,0.0000,0.99841308593750,0.00769042968750,0.05548095703125,-0.00006103515625
1721764462.37,0,0,3,0,0.0700,0.0000,-0.4500,0.0000,0.1875,0.0000,0.99841308593750,0.00769042968750,0.05548095703125,-0.00006103515625
1721764462.38,0,0,3,0,0.0600,0.0000,-0.4300,0.1250,-0.2500,0.0000,0.99841308593750,0.00769042968750,0.05548095703125,-0.00006103515625
1721764462.39,0,0,3,0,0.0800,0.0200,-0.4400,0.0000,0.0000,-0.0625,0.99841308593750,0.00769042968750,0.05548095703125,-0.00006103515625
1721764462.40,0,0,3,0,0.0800,0.0000,-0.4500,0.0000,0.1250,0.0000,0.99841308593750,0.00769042968750,0.05548095703125,-0.00006103515625
1721764462.41,0,0,3,0,0.0700,-0.0100,-0.4200,0.0000,0.0000,0.0000,0.99841308593750,0.00769042968750,0.05548095703125,-0.00006103515625
1721764462.42,0,0,3,0,0.0900,0.0000,-0.4100,-0.0625,0.0000,-0.0625,0.99841308593750,0.00769042968750,0.05548095703125,-0.00006103515625
1721764462.43,0,0,3,0,0.0700,-0.0100,-0.4200,-0.0625,0.0625,0.0000,0.99841308593750,0.00769042968750,0.05548095703125,-0.00006103515625
1721764462.44,0,0,3,0,0.0900,-0.0400,-0.4400,0.0000,0.0000,0.0000,0.99841308593750,0.00769042968750,0.05548095703125,-0.00006103515625
1721764462.45,0,0,3,0,0.0800,0.0000,-0.4200,0.0000,0.0000,-0.0625,0.99841308593750,0.00769042968750,0.05548095703125,-0.00006103515625
1721764462.46,0,0,3,0,0.0600,0.0100,-0.4400,-0.1250,0.1875,0.0000,0.99841308593750,0.00769042968750,0.05548095703125,-0.00006103515625
1721764462.47,0,0,3,0,0.0800,0.0000,-0.4000,0.0000,0.0000,0.0000,0.99841308593750,0.00769042968750,0.05548095703125,-0.00006103515625
1721764462.48,0,0,3,0,0.0700,0.0000,-0.4200,0.0000,0.0000,-0.0625,0.99841308593750,0.00769042968750,0.05541992187500,-0.00006103515625
1721764462.49,0,0,3,0,0.0700,0.0000,-0.4400,0.0000,0.0000,0.0625,0.99841308593750,0.00769042968750,0.05541992187500,-0.00006103515625
1721764462.50,0,0,3,0,0.0500,0.0000,-0.4500,0.0000,0.1875,-0.1250,0.99841308593750,0.00769042968750,0.05541992187500,-0.00006103515625
1721764462.51,0,0,3,0,0.0600,0.0000,-0.4400,0.0000,0.0000,0.0000,0.99841308593750,0.00769042968750,0.05541992187500,-0.00006103515625
1721764462.52,0,0,3,0,0.0500,-0.0300,-0.4300,0.0000,-0.1250,0.0625,0.99841308593750,0.00769042968750,0.05541992187500,-0.00006103515625
1721764462.53,0,0,3,0,0.0700,-0.0300,-0.4200,0.0000,0.0000,0.0000,0.99841308593750,0.00769042968750,0.05541992187500,-0.00006103515625
1721764462.54,0,0,3,0,0.0800,-0.0100,-0.4400,-0.0625,0.0625,0.0000,0.99841308593750,0.00769042968750,0.05541992187500,-0.00006103515625
1721764462.55,0,0,3,0,0.0800,-0.0200,-0.4200,0.0000,-0.1250,0.0000,0.99841308593750,0.00769042968750,0.05541992187500,-0.00006103515625
1721764462.56,0,0,3,0,0.0800,0.0000,-0.4200,0.0000,-0.0625,0.0000,0.99841308593750,0.00769042968750,0.05541992187500,-0.00006103515625
1721764462.57,0,0,3,0,0.0800,-0.0200,-0.4500,-0.0625,0.0000,0.0000,0.99841308593750,0.00769042968750,0.05541992187500,-0.00006103515625
1721764462.58,0,0,3,0,0.0600,0.0100,-0.4100,0.0000,0.0625,0.0625,0.99841308593750,0.00769042968750,0.05541992187500,-0.00006103515625
1721764462.59,0,0,3,0,0.0700,0.0000,-0.4400,0.1250,-0.1875,0.0000,0.99841308593750,0.00769042968750,0.05541992187500,-0.00006103515625
1721764462.60,0,0,3,0,0.0400,0.0000,-0.4200,0.0000,0.1875,0.0000,0.99841308593750,0.00769042968750,0.05541992187500,-0.00006103515625
1721764462.61,0,0,3,0,0.0800,0.0100,-0.4400,0.0000,0.1250,0.0000,0.99841308593750,0.00769042968750,0.05541992187500,-0.00006103515625
1721764462.62,0,0,3,0,0.0800,0.0000,-0.4100,0.1250,0.0000,0.0000,0.99841308593750,0.00769042968750,0.05541992187500,-0.00006103515625
1721764462.63,0,0,3,0,0.0800,0.0000,-0.4000,0.0000,0.0000,0.0000,0.99841308593750,0.00769042968750,0.05541992187500,-0.00006103515625
1721764462.64,0,0,3,0,0.0700,-0.0100,-0.4700,-0.0625,0.3125,0.0000,0.99841308593750,0.00769042968750,0.05541992187500,-0.00006103515625
1721764462.65,0,0,3,0,0.0600,-0.0200,-0.4200,0.0000,0.0000,0.0000,0.99841308593750,0.00769042968750,0.05541992187500,-0.00006103515625
1721764462.66,0,0,3,0,0.0700,-0.0300,-0.4200,0.0000,-0.0625,0.0000,0.99841308593750,0.00769042968750,0.05541992187500,-0.00006103515625
1721764462.67,0,0,3,0,0.0600,-0.0100,-0.4400,0.0000,0.1250,0.0000,0.99841308593750,0.00769042968750,0.05541992187500,-0.00006103515625
1721764462.68,0,0,3,0,0.0500,-0.0100,-0.4300,0.0000,0.0625,0.0000,0.99841308593750,0.00769042968750,0.05541992187500,-0.00006103515625
1721764462.69,0,0,3,0,0.0600,0.0000,-0.4300,0.0625,-0.1250,0.0000,0.99841308593750,0.00769042968750,0.05541992187500,-0.00006103515625
1721764462.70,0,0,3,0,0.0500,0.0100,-0.4100,0.0000,0.0000,0.0000,0.99841308593750,0.00769042968750,0.05541992187500,-0.00006103515625
1721764462.71,0,0,3,0,0.0700,-0.0100,-0.4300,-0.0625,0.0000,0.0000,0.99841308593750,0.00769042968750,0.05541992187500,-0.00006103515625
1721764462.72,0,0,3,0,0.0700,0.0000,-0.4400,0.0000,0.0000,0.0000,0.99841308593750,0.00769042968750,0.05541992187500,-0.00006103515625
1721764462.73,0,0,3,0,0.0600,-0.0100,-0.4600,0.0000,0.0000,0.0000,0.99841308593750,0.00769042968750,0.05541992187500,-0.00006103515625
1721764462.74,0,0,3,0,0.0700,-0.0200,-0.4700,0.0000,0.0000,0.0000,0.99841308593750,0.00769042968750,0.05541992187500,-0.00006103515625
1721764462.75,0,0,3,0,0.0700,-0.0100,-0.4600,0.0000,0.0000,0.0000,0.99841308593750,0.00769042968750,0.05541992187500,-0.00006103515625
1721764462.76,0,0,3,0,0.0700,0.0000,-0.4600,0.0000,0.0000,0.0000,0.99841308593750,0.00769042968750,0.05541992187500,-0.00006103515625
1721764462.77,0,0,3,0,0.0600,-0.0200,-0.4100,0.0000,0.0000,0.0000,0.99841308593750,0.00769042968750,0.05541992187500,-0.00006103515625
1721764462.78,0,0,3,0,0.0700,0.0000,-0.4400,0.0000,0.0000,-0.0625,0.99841308593750,0.00769042968750,0.05541992187500,-0.00006103515625
1721764462.79,0,0,3,0,0.0500,0.0100,-0.4500,0.1250,0.0000,0.0000,0.99841308593750,0.00769042968750,0.05541992187500,-0.00006103515625
1721764462.80,0,0,3,0,0.0600,0.0000,-0.4400,0.0000,0.1250,0.0000,0.99841308593750,0.00769042968750,0.05541992187500,-0.00006103515625
1721764462.81,0,0,3,0,0.0600,-0.0200,-0.4300,0.0000,0.1250,-0.0625,0.99841308593750,0.00769042968750,0.05541992187500,-0.00006103515625
1721764462.82,0,0,3,0,0.0700,0.0000,-0.4000,0.0625,0.0000,0.0000,0.99841308593750,0.00769042968750,0.05541992187500,-0.00006103515625
1721764462.83,0,0,3,0,0.0900,-0.0200,-0.4100,0.0000,0.0000,0.0000,0.99841308593750,0.00769042968750,0.05541992187500,-0.00006103515625
1721764462.84,0,0,3,0,0.0600,-0.0100,-0.4600,-0.0625,0.1250,-0.0625,0.99841308593750,0.00769042968750,0.05541992187500,-0.00006103515625
1721764462.85,0,0,3,0,0.0500,-0.0200,-0.4300,0.0000,0.0000,0.0000,0.99841308593750,0.00769042968750,0.05541992187500,-0.00006103515625
1721764462.86,0,0,3,0,0.0700,-0.0300,-0.4500,0.0000,-0.0625,0.0000,0.99841308593750,0.00769042968750,0.05541992187500,-0.00006103515625
1721764462.87,0,0,3,0,0.0600,-0.0200,-0.4100,-0.0625,0.0000,0.0000,0.99841308593750,0.00769042968750,0.05541992187500,-0.00006103515625
1721764462.88,0,0,3,0,0.0700,0.0000,-0.4200,0.0000,0.0000,0.0000,0.99841308593750,0.00769042968750,0.05541992187500,-0.00006103515625
1721764462.89,0,0,3,0,0.0500,-0.0100,-0.4700,0.0000,0.0000,0.0000,0.99841308593750,0.00769042968750,0.05541992187500,-0.00006103515625
1721764462.90,0,0,3,0,0.0700,0.0000,-0.4600,-0.1250,0.3125,0.0000,0.99841308593750,0.00769042968750,0.05541992187500,-0.00006103515625
1721764462.91,0,0,3,0,0.0500,0.0000,-0.4400,-0.0625,0.0000,-0.0625,0.99841308593750,0.00769042968750,0.05541992187500,-0.00006103515625
1721764462.92,0,0,3,0,0.0600,-0.0100,-0.4300,0.0000,0.0000,0.0000,0.99841308593750,0.00769042968750,0.05541992187500,-0.00006103515625
1721764462.93,0,0,3,0,0.0500,-0.0200,-0.4800,-0.1250,0.0625,0.0000,0.99841308593750,0.00769042968750,0.05541992187500,-0.00006103515625
1721764462.94,0,0,3,0,0.0900,0.0000,-0.4500,0.0000,0.0000,0.0000,0.99841308593750,0.00769042968750,0.05541992187500,-0.00006103515625
1721764462.95,0,0,3,0,0.0600,0.0000,-0.4300,0.0000,0.0000,0.0000,0.99841308593750,0.00769042968750,0.05541992187500,-0.00006103515625
1721764462.96,0,0,3,0,0.0600,0.0000,-0.4400,-0.1250,0.1250,0.0000,0.99841308593750,0.00769042968750,0.05541992187500,-0.00006103515625
1721764462.97,0,0,3,0,0.0800,-0.0100,-0.4300,0.0000,0.0000,0.0000,0.99841308593750,0.00769042968750,0.05541992187500,-0.00006103515625
1721764462.98,0,0,3,0,0.0700,-0.0100,-0.4500,0.0625,-0.1875,0.0000,0.99841308593750,0.00769042968750,0.05541992187500,-0.00006103515625
1721764462.99,0,0,3,0,0.0700,-0.0100,-0.4500,0.0000,0.0625,0.0000,0.99841308593750,0.00769042968750,0.05541992187500,-0.00006103515625
1721764463.00,0,0,3,0,0.0700,0.0200,-0.4500,0.0000,0.1875,0.0000,0.99841308593750,0.00769042968750,0.05541992187500,-0.00006103515625
1721764463.01,0,0,3,0,0.0700,0.0100,-0.4200,0.0625,0.0000,0.0000,0.99841308593750,0.00769042968750,0.05541992187500,-0.00006103515625
1721764463.02,0,0,3,0,0.0400,0.0000,-0.4400,0.0000,0.0000,-0.0625,0.99841308593750,0.00769042968750,0.05541992187500,-0.00006103515625
1721764463.03,0,0,3,0,0.0800,0.0000,-0.4400,0.0000,0.0625,0.0000,0.99841308593750,0.00769042968750,0.05535888671875,-0.00006103515625
1721764463.04,0,0,3,0,0.0600,-0.0100,-0.4500,0.0000,0.1250,0.0000,0.99841308593750,0.00769042968750,0.05535888671875,-0.00006103515625
1721764463.05,0,0,3,0,0.0600,-0.0400,-0.4200,0.0000,-0.0625,0.0000,0.99841308593750,0.00769042968750,0.05535888671875,-0.00006103515625
1721764463.06,0,0,3,0,0.0500,-0.0100,-0.4100,0.0000,0.0000,0.0000,0.99841308593750,0.00769042968750,0.05535888671875,-0.00006103515625
1721764463.07,0,0,3,0,0.0500,0.0000,-0.4700,0.0000,0.2500,0.0000,0.99841308593750,0.00769042968750,0.05535888671875,-0.00006103515625
1721764463.08,0,0,3,0,0.0500,0.0000,-0.4700,0.0625,0.0000,-0.0625,0.99841308593750,0.00769042968750,0.05535888671875,-0.00006103515625
1721764463.09,0,0,3,0,0.0600,0.0100,-0.4700,0.0000,-0.1250,0.0000,0.99841308593750,0.00769042968750,0.05535888671875,-0.00006103515625
1721764463.10,0,0,3,0,0.0600,0.0100,-0.4600,0.0000,0.0000,0.0000,0.99841308593750,0.00769042968750,0.05535888671875,-0.00006103515625
1721764463.11,0,0,3,0,0.0700,-0.0100,-0.4500,0.0000,0.1250,-0.0625,0.99841308593750,0.00769042968750,0.05535888671875,-0.00006103515625
1721764463.12,0,0,3,0,0.0700,0.0000,-0.4400,0.0000,-0.1250,0.0625,0.99841308593750,0.00769042968750,0.05535888671875,-0.00006103515625
1721764463.13,0,0,3,0,0.0600,-0.0100,-0.4500,0.0000,-0.0625,0.0000,0.99841308593750,0.00769042968750,0.05535888671875,-0.00006103515625
1721764463.14,0,0,3,0,0.0600,-0.0200,-0.4800,0.0000,0.0000,0.0000,0.99841308593750,0.00769042968750,0.05535888671875,-0.00006103515625
1721764463.15,0,0,3,0,0.0600,-0.0300,-0.4100,0.0000,0.0625,0.0000,0.99841308593750,0.00769042968750,0.05535888671875,-0.00006103515625
1721764463.16,0,0,3,0,0.0600,-0.0200,-0.4200,0.0000,0.0000,0.0000,0.99841308593750,0.00769042968750,0.05535888671875,-0.00006103515625
1721764463.17,0,0,3,0,0.0700,-0.0100,-0.4400,0.0000,0.0000,0.0000,0.99841308593750,0.00769042968750,0.05535888671875,-0.00006103515625
1721764463.18,0,0,3,0,0.0700,-0.0100,-0.4300,0.0000,0.0000,0.0000,0.99841308593750,0.00769042968750,0.05535888671875,-0.00006103515625
1721764463.19,0,0,3,0,0.0500,0.0000,-0.4600,0.0000,0.0625,0.0625,0.99841308593750,0.00769042968750,0.05535888671875,-0.00006103515625
1721764463.20,0,0,3,0,0.0700,0.0000,-0.4500,0.0000,-0.0625,0.0000,0.99841308593750,0.00769042968750,0.05535888671875,-0.00006103515625
1721764463.21,0,0,3,0,0.0600,0.0100,-0.4200,0.0000,0.0000,0.0000,0.99841308593750,0.00769042968750,0.05535888671875,-0.00006103515625
1721764463.22,0,0,3,0,0.0600,0.0000,-0.4200,0.0000,0.0000,0.0000,0.99841308593750,0.00769042968750,0.05535888671875,-0.00006103515625
1721764463.23,0,0,3,0,0.0600,0.0000,-0.4300,0.0000,0.0000,0.0625,0.99841308593750,0.00769042968750,0.05535888671875,-0.00006103515625
1721764463.24,0,0,3,0,0.0800,0.0000,-0.4600,0.0000,0.0000,0.0625,0.99841308593750,0.00769042968750,0.05535888671875,-0.00006103515625
1721764463.25,0,0,3,0,0.0700,-0.0300,-0.4500,-0.0625,0.0625,-0.0625,0.99841308593750,0.00769042968750,0.05535888671875,-0.00006103515625
1721764463.26,0,0,3,0,0.0800,0.0000,-0.4300,0.0000,0.0625,0.0000,0.99841308593750,0.00769042968750,0.05535888671875,-0.00006103515625
1721764463.27,0,0,3,0,0.0700,0.0000,-0.4400,0.0000,0.0000,0.0000,0.99841308593750,0.00769042968750,0.05535888671875,-0.00006103515625
1721764463.28,0,0,3,0,0.0500,-0.0100,-0.4300,0.0000,-0.0625,0.0000,0.99841308593750,0.00769042968750,0.05535888671875,-0.00006103515625
1721764463.29,0,0,3,0,0.0500,-0.0300,-0.4500,0.0000,0.0000,-0.0625,0.99841308593750,0.00769042968750,0.05535888671875,-0.00006103515625
1721764463.30,0,0,3,0,0.0500,0.0000,-0.4500,0.0000,0.0000,0.0000,0.99841308593750,0.00769042968750,0.05535888671875,-0.00006103515625
1721764463.31,0,0,3,0,0.0500,0.0100,-0.4600,0.0000,0.0625,0.0000,0.99841308593750,0.00769042968750,0.05535888671875,-0.00006103515625
1721764463.32,0,0,3,0,0.0700,0.0000,-0.4300,0.0000,0.0000,0.0000,0.99841308593750,0.00769042968750,0.05535888671875,-0.00006103515625
1721764463.33,0,0,3,0,0.0500,0.0000,-0.4400,0.0000,0.0000,0.0000,0.99841308593750,0.00769042968750,0.05535888671875,-0.00006103515625
1721764463.34,0,0,3,0,0.0600,-0.0300,-0.4400,0.0000,0.0000,0.0000,0.99841308593750,0.00769042968750,0.05535888671875,-0.00006103515625
1721764463.35,0,0,3,0,0.0600,-0.0200,-0.4300,0.0000,0.0000,0.0000,0.99841308593750,0.00769042968750,0.05535888671875,-0.00006103515625
1721764463.36,0,0,3,0,0.0700,-0.0300,-0.4400,0.0000,0.0625,0.0000,0.99841308593750,0.00769042968750,0.05535888671875,-0.00006103515625
1721764463.37,0,0,3,0,0.0400,-0.0200,-0.4600,-0.0625,0.0625,0.0000,0.99841308593750,0.00769042968750,0.05535888671875,-0.00006103515625
1721764463.38,0,0,3,0,0.0600,-0.0200,-0.4500,0.0000,0.0625,0.0000,0.99841308593750,0.00769042968750,0.05535888671875,-0.00006103515625
1721764463.39,0,0,3,0,0.0600,0.0000,-0.4300,0.0625,-0.1875,0.0000,0.99841308593750,0.00769042968750,0.05535888671875,-0.00006103515625
1721764463.40,0,0,3,0,0.0800,0.0000,-0.4600,-0.0625,0.0000,0.0000,0.99841308593750,0.00769042968750,0.05535888671875,-0.00006103515625
1721764463.41,0,0,3,0,0.0600,0.0100,-0.4600,0.0000,0.0000,0.0000,0.99841308593750,0.00769042968750,0.05535888671875,-0.00006103515625
1721764463.42,0,0,3,0,0.0600,0.0000,-0.4400,0.0000,0.0625,-0.0625,0.99841308593750,0.00769042968750,0.05535888671875,-0.00006103515625
1721764463.43,0,0,3,0,0.0800,0.0000,-0.4100,0.0000,0.0625,0.0000,0.99841308593750,0.00769042968750,0.05535888671875,-0.00006103515625
1721764463.44,0,0,3,0,0.0700,-0.0300,-0.4100,0.0000,0.0625,0.0625,0.99841308593750,0.00769042968750,0.05535888671875,-0.00006103515625
1721764463.45,0,0,3,0,0.0700,0.0000,-0.4400,0.0000,0.1250,0.0000,0.99841308593750,0.00769042968750,0.05535888671875,-0.00006103515625
1721764463.46,0,0,3,0,0.0500,-0.0100,-0.4300,0.0000,0.0000,0.0000,0.99841308593750,0.00769042968750,0.05535888671875,-0.00006103515625
1721764463.47,0,0,3,0,0.0600,-0.0100,-0.4300,0.0000,0.1250,0.0000,0.99841308593750,0.00769042968750,0.05535888671875,-0.00006103515625
1721764463.48,0,0,3,0,0.0600,-0.0100,-0.4700,0.0000,0.0000,0.0000,0.99841308593750,0.00769042968750,0.05535888671875,-0.00006103515625
1721764463.49,0,0,3,0,0.0600,0.0000,-0.4600,0.0000,0.0625,0.0000,0.99841308593750,0.00769042968750,0.05535888671875,-0.00006103515625
1721764463.50,0,0,3,0,0.0500,-0.0100,-0.4400,0.0625,0.0000,0.0000,0.99841308593750,0.00769042968750,0.05535888671875,-0.00006103515625
1721764463.51,0,0,3,0,0.0700,0.0100,-0.4300,0.0000,0.0000,0.0000,0.99841308593750,0.00769042968750,0.05535888671875,-0.00006103515625
1721764463.52,0,0,3,0,0.0500,0.0000,-0.4400,0.0000,0.0625,0.0000,0.99841308593750,0.00769042968750,0.05535888671875,-0.00006103515625
1721764463.53,0,0,3,0,0.0600,-0.0100,-0.4300,0.0000,-0.1250,0.0000,0.99841308593750,0.00769042968750,0.05535888671875,-0.00006103515625
1721764463.54,0,0,3,0,0.0700,0.0000,-0.4700,-0.0625,0.0625,-0.0625,0.99841308593750,0.00769042968750,0.05535888671875,-0.00006103515625
1721764463.55,0,0,3,0,0.0500,-0.0300,-0.4200,-0.0625,0.0625,0.0000,0.99841308593750,0.00769042968750,0.05535888671875,-0.00006103515625
1721764463.56,0,0,3,0,0.0500,-0.0200,-0.4600,0.0000,0.0000,0.0000,0.99841308593750,0.00769042968750,0.05535888671875,-0.00006103515625
1721764463.57,0,0,3,0,0.0600,-0.0400,-0.4300,0.0000,0.0000,0.0000,0.99841308593750,0.00769042968750,0.05535888671875,-0.00006103515625
1721764463.58,0,0,3,0,0.0700,-0.0100,-0.4700,0.0000,0.1250,0.0000,0.99841308593750,0.00769042968750,0.05535888671875,-0.00006103515625
1721764463.59,0,0,3,0,0.0800,0.0000,-0.4700,0.0000,0.0000,0.0000,0.99841308593750,0.00769042968750,0.05535888671875,-0.00006103515625
1721764463.60,0,0,3,0,0.0900,-0.0100,-0.4600,0.0000,-0.1875,0.0000,0.99841308593750,0.00769042968750,0.05535888671875,-0.00006103515625
1721764463.61,0,0,3,0,0.0800,0.0000,-0.4300,0.0000,0.0000,0.0000,0.99841308593750,0.00769042968750,0.05535888671875,-0.00006103515625
1721764463.62,0,0,3,0,0.0700,0.0100,-0.4200,-0.0625,0.0000,0.0000,0.99841308593750,0.00769042968750,0.05529785156250,-0.00006103515625
1721764463.63,0,0,3,0,0.0700,0.0200,-0.4400,0.0000,-0.1250,0.0000,0.99841308593750,0.00769042968750,0.05529785156250,-0.00006103515625
1721764463.64,0,0,3,0,0.0700,-0.0200,-0.4500,0.0000,0.0625,0.0000,0.99841308593750,0.00769042968750,0.05529785156250,-0.00006103515625
1721764463.65,0,0,3,0,0.0800,-0.0400,-0.4500,0.0000,0.2500,0.0000,0.99841308593750,0.00769042968750,0.05529785156250,-0.00006103515625
1721764463.66,0,0,3,0,0.0800,-0.0300,-0.4400,0.0000,-0.1250,0.0000,0.99841308593750,0.00769042968750,0.05529785156250,-0.00006103515625
