timestamp,calib_mag,calib_accel,calib_gyro,calib_sys,lacc_x,lacc_y,lacc_z,gyro_x,gyro_y,gyro_z,quat_w,quat_x,quat_y,quat_z,label
440.05,3,0,3,0,2.4400,-0.3500,-0.7000,-41.3750,72.3125,2.1250,0.67132568359375,0.15649414062500,0.72021484375000,0.07788085937500,moving
440.06,3,0,3,0,3.3600,-0.9600,-1.2200,-41.9375,41.4375,-1.1250,0.66931152343750,0.15368652343750,0.72241210937500,0.08099365234375,moving
440.07,3,0,3,0,4.8700,-1.2600,-0.4000,-27.5000,-7.3750,-1.1250,0.67016601562500,0.15203857421875,0.72174072265625,0.08258056640625,moving
440.08,3,0,3,0,5.3800,-1.8500,-0.0300,-31.7500,-13.7500,0.0000,0.67144775390625,0.15032958984375,0.72070312500000,0.08435058593750,moving
440.09,3,0,3,0,6.6000,-2.1800,0.1500,-36.3125,-5.6875,6.0625,0.67224121093750,0.14862060546875,0.72003173828125,0.08691406250000,moving
440.10,3,0,3,0,7.1000,-2.2000,-0.2300,-33.1875,3.9375,12.0625,0.67236328125000,0.14739990234375,0.71984863281250,0.08978271484375,moving
440.11,3,0,3,0,7.6100,-1.9500,-0.4300,-27.5625,8.7500,16.7500,0.67199707031250,0.14672851562500,0.71990966796875,0.09259033203125,moving
440.12,3,0,3,0,8.0000,-1.2400,-0.9700,-28.3750,20.5000,15.3125,0.67095947265625,0.14587402343750,0.72070312500000,0.09558105468750,moving
440.13,3,0,3,0,7.8700,-0.8900,-1.4500,-31.1250,31.6250,8.2500,0.66931152343750,0.14428710937500,0.72216796875000,0.09838867187500,moving
440.14,3,0,3,0,7.2400,-1.3300,-2.0600,-25.2500,28.6250,0.6875,0.66778564453125,0.14263916015625,0.72363281250000,0.10040283203125,moving
440.15,3,0,3,0,6.4300,-1.0400,-2.4700,-7.9375,0.1250,1.7500,0.66790771484375,0.14227294921875,0.72351074218750,0.10101318359375,moving
440.16,3,0,3,0,4.6500,-0.5200,-1.4900,15.1250,-25.9375,2.9375,0.66931152343750,0.14355468750000,0.72210693359375,0.09991455078125,moving
440.17,3,0,3,0,3.3000,-0.5400,-1.1400,33.0000,-25.6250,2.5625,0.67047119140625,0.14587402343750,0.72088623046875,0.09765625000000,moving
440.18,3,0,3,0,1.6000,0.2400,-1.3700,42.8750,-12.9375,0.3750,0.67071533203125,0.14849853515625,0.72045898437500,0.09478759765625,moving
440.19,3,0,3,0,-4.4800,2.6800,-2.6900,56.8125,-13.4375,-12.2500,0.67089843750000,0.15118408203125,0.72033691406250,0.09033203125000,moving
440.20,3,0,3,0,-9.9700,4.1300,-2.7400,74.2500,-44.9375,-36.5625,0.67303466796875,0.15356445312500,0.71875000000000,0.08294677734375,moving
440.21,3,0,3,0,-16.3900,5.9500,-1.8300,75.8750,-87.3750,-54.1875,0.67779541015625,0.15527343750000,0.71484375000000,0.07379150390625,moving
440.22,3,0,3,0,-18.6600,4.5200,0.3600,83.1250,-121.2500,-26.1250,0.68432617187500,0.15930175781250,0.70849609375000,0.06542968750000,moving
440.23,3,0,3,0,-10.2600,2.0400,7.9500,96.1875,-118.3125,13.6250,0.69018554687500,0.16656494140625,0.70178222656250,0.05865478515625,moving
440.24,3,0,3,0,-4.6900,0.5500,9.5600,70.4375,-85.8125,25.4375,0.69427490234375,0.17279052734375,0.69653320312500,0.05462646484375,moving
440.25,3,0,3,0,-2.0800,0.2400,6.6900,-10.4375,0.8750,16.8125,0.69427490234375,0.17321777343750,0.69628906250000,0.05627441406250,moving
440.26,3,0,3,0,-2.0400,0.1200,3.2100,-47.3125,60.2500,5.1250,0.69128417968750,0.17034912109375,0.69958496093750,0.06036376953125,moving
440.29,3,0,3,0,3.0400,-0.4500,-1.3300,-60.6250,106.0000,1.5000,0.68090820312500,0.16271972656250,0.71057128906250,0.07049560546875,moving
440.29,3,0,3,0,3.8600,-1.4200,-1.7300,-57.8125,82.5625,-0.1250,0.67657470703125,0.15875244140625,0.71508789062500,0.07525634765625,moving
440.29,3,0,3,0,3.8600,-1.4200,-1.7300,-57.8125,82.5625,-0.1250,0.67657470703125,0.15875244140625,0.71508789062500,0.07525634765625,moving
440.30,3,0,3,0,6.2800,-2.6900,-1.0700,-44.1875,38.1250,3.6875,0.67480468750000,0.15612792968750,0.71697998046875,0.07873535156250,moving
440.31,3,0,3,0,6.7400,-2.5400,-0.5900,-32.3125,4.3750,7.8750,0.67492675781250,0.15472412109375,0.71691894531250,0.08129882812500,moving
440.32,3,0,3,0,7.1900,-2.4300,-0.0900,-25.2500,-15.5625,10.5000,0.67614746093750,0.15399169921875,0.71563720703125,0.08325195312500,moving
440.33,3,0,3,0,7.4700,-2.6300,-0.2700,-19.8750,-15.3125,15.5000,0.67724609375000,0.15386962890625,0.71441650390625,0.08520507812500,moving
440.34,3,0,3,0,8.2500,-2.1200,-0.4900,-15.5000,-2.6875,21.9375,0.67749023437500,0.15435791015625,0.71380615234375,0.08746337890625,moving
440.35,3,0,3,0,8.2200,-1.4300,-0.5800,-13.5625,11.1875,22.1875,0.67681884765625,0.15484619140625,0.71405029296875,0.08978271484375,moving
440.36,3,0,3,0,8.2600,-1.0700,-0.9800,-13.2500,27.6250,12.8125,0.67517089843750,0.15466308593750,0.71545410156250,0.09173583984375,moving
440.37,3,0,3,0,7.4900,-1.4200,-1.5100,-8.3750,26.1250,0.3750,0.67364501953125,0.15393066406250,0.71691894531250,0.09259033203125,moving
440.38,3,0,3,0,5.6900,-1.2800,-1.7000,3.7500,4.3125,0.2500,0.67333984375000,0.15411376953125,0.71716308593750,0.09240722656250,moving
440.39,3,0,3,0,5.0200,-0.9200,-1.1600,23.3750,-21.8750,1.5625,0.67437744140625,0.15576171875000,0.71606445312500,0.09075927734375,moving
440.40,3,0,3,0,3.6300,-0.3900,-1.0700,40.7500,-27.8125,-0.1250,0.67553710937500,0.15838623046875,0.71472167968750,0.08782958984375,moving
440.41,3,0,3,0,-1.7300,1.5600,-2.5800,52.6250,-20.8125,-8.3125,0.67614746093750,0.16113281250000,0.71405029296875,0.08380126953125,moving
440.42,3,0,3,0,-6.1800,2.5700,-3.4200,64.0625,-22.5625,-29.8750,0.67687988281250,0.16326904296875,0.71356201171875,0.07769775390625,moving
440.43,3,0,3,0,-14.2400,7.2000,-3.7000,54.8125,-40.8750,-64.0625,0.67901611328125,0.16278076171875,0.71240234375000,0.06994628906250,moving
440.44,3,0,3,0,-20.4600,9.0000,-2.7200,42.9375,-81.7500,-85.7500,0.68395996093750,0.16046142578125,0.70904541015625,0.06103515625000,moving
440.45,3,0,3,0,-17.6200,1.5900,6.3200,73.3125,-140.7500,-40.6875,0.69177246093750,0.16308593750000,0.70153808593750,0.05212402343750,moving
440.46,3,0,3,0,-8.4000,0.3200,9.8800,102.9375,-160.1250,19.4375,0.69995117187500,0.17120361328125,0.69195556640625,0.04467773437500,moving
440.47,3,0,3,0,-2.5700,-1.6300,10.7200,59.1875,-113.7500,28.0000,0.70574951171875,0.17694091796875,0.68475341796875,0.04113769531250,moving
440.48,3,0,3,0,-1.0200,-1.6100,7.3900,-21.3750,8.1250,8.6875,0.70556640625000,0.17608642578125,0.68505859375000,0.04309082031250,moving
440.49,3,0,3,0,-0.6800,0.2100,0.6500,-52.6250,89.6250,-5.3125,0.70104980468750,0.17218017578125,0.69042968750000,0.04724121093750,moving
440.50,3,0,3,0,1.6500,-0.1600,-0.8600,-67.0625,122.6250,-8.1875,0.69464111328125,0.16711425781250,0.69769287109375,0.05267333984375,moving
440.51,3,0,3,0,3.3000,-0.8000,-1.1400,-75.8750,111.6250,-6.1875,0.68896484375000,0.16156005859375,0.70416259765625,0.05853271484375,moving
440.52,3,0,3,0,5.9400,-1.7500,-1.5000,-68.1875,80.1875,0.7500,0.68493652343750,0.15710449218750,0.70855712890625,0.06390380859375,moving
440.53,3,0,3,0,7.0700,-1.8400,-0.8800,-55.0625,58.0000,5.6250,0.68206787109375,0.15386962890625,0.71160888671875,0.06842041015625,moving
440.54,3,0,3,0,7.4400,-2.2900,-1.3800,-62.3750,32.0000,4.7500,0.68090820312500,0.15020751953125,0.71307373046875,0.07299804687500,moving
440.55,3,0,3,0,7.4400,-2.2900,-1.3800,-62.3750,32.0000,4.7500,0.68090820312500,0.15020751953125,0.71307373046875,0.07299804687500,moving
440.55,3,0,3,0,7.6800,-1.7100,-0.6600,-56.7500,6.7500,10.7500,0.68115234375000,0.14746093750000,0.71295166015625,0.07727050781250,moving
440.56,3,0,3,0,8.3100,-0.5300,-1.2700,-44.2500,10.6250,18.8125,0.68096923828125,0.14593505859375,0.71301269531250,0.08129882812500,moving
440.57,3,0,3,0,8.4300,-0.0700,-1.6600,-34.8125,12.6875,16.0625,0.68048095703125,0.14477539062500,0.71331787109375,0.08459472656250,moving
440.58,3,0,3,0,8.1400,0.2100,-1.6800,-28.6250,22.0625,2.4375,0.67944335937500,0.14306640625000,0.71435546875000,0.08679199218750,moving
440.59,3,0,3,0,6.2900,-0.6300,-2.8700,-18.0625,18.1250,-7.3125,0.67858886718750,0.14141845703125,0.71539306640625,0.08770751953125,moving
440.60,3,0,3,0,4.8000,-0.5000,-3.0300,-2.5625,9.6250,-4.0000,0.67810058593750,0.14093017578125,0.71600341796875,0.08776855468750,moving
440.61,3,0,3,0,4.2100,-0.3400,-2.7200,21.4375,-3.2500,3.1875,0.67797851562500,0.14245605468750,0.71594238281250,0.08654785156250,moving
440.62,3,0,3,0,2.6400,0.2200,-1.4900,45.1250,-13.1875,4.6250,0.67822265625000,0.14550781250000,0.71545410156250,0.08386230468750,moving
440.63,3,0,3,0,-2.9200,0.9700,-2.3900,67.1250,-17.0000,-2.4375,0.67840576171875,0.14947509765625,0.71490478515625,0.07934570312500,moving
440.64,3,0,3,0,-7.2800,1.5800,-2.0900,90.2500,-40.8125,-20.8125,0.67987060546875,0.15380859375000,0.71337890625000,0.07196044921875,moving
440.65,3,0,3,0,-13.0200,3.3000,-1.5900,87.6875,-73.9375,-49.0625,0.68359375000000,0.15643310546875,0.71014404296875,0.06256103515625,moving
440.66,3,0,3,0,-15.3900,1.5300,0.8400,90.8750,-117.8125,-50.7500,0.68981933593750,0.15930175781250,0.70428466796875,0.05230712890625,moving
440.67,3,0,3,0,-10.9100,-0.1600,6.6300,85.6250,-126.1250,-6.8125,0.69635009765625,0.16461181640625,0.69708251953125,0.04486083984375,moving
440.68,3,0,3,0,-5.8600,1.2200,8.4200,56.2500,-88.8750,21.1250,0.70086669921875,0.16967773437500,0.69158935546875,0.04144287109375,moving
440.69,3,0,3,0,-2.5800,1.6900,6.0900,1.6875,-5.5000,15.1250,0.70111083984375,0.17071533203125,0.69104003906250,0.04223632812500,moving
440.70,3,0,3,0,-1.0200,1.2600,0.5700,-34.1875,63.6250,2.5625,0.69775390625000,0.16851806640625,0.69476318359375,0.04534912109375,moving
440.71,3,0,3,0,0.6000,0.8200,-0.7700,-45.3125,94.0625,-1.7500,0.69268798828125,0.16528320312500,0.70025634765625,0.04937744140625,moving
440.72,3,0,3,0,2.1500,0.4300,-1.5900,-53.8125,99.5000,0.5000,0.68737792968750,0.16162109375000,0.70599365234375,0.05413818359375,moving
440.73,3,0,3,0,3.1600,-0.1500,-1.5900,-52.7500,67.8125,1.8750,0.68389892578125,0.15820312500000,0.70977783203125,0.05847167968750,moving
440.74,3,0,3,0,5.1800,-0.8900,-0.1700,-43.3750,28.9375,4.9375,0.68267822265625,0.15582275390625,0.71124267578125,0.06182861328125,moving
440.75,3,0,3,0,5.7000,-1.3600,-0.6300,-36.1250,4.5000,10.7500,0.68286132812500,0.15429687500000,0.71112060546875,0.06475830078125,moving
440.76,3,0,3,0,6.2400,-1.3600,-0.1400,-30.6875,-13.6875,19.9375,0.68402099609375,0.15380859375000,0.70983886718750,0.06768798828125,moving
440.77,3,0,3,0,6.6100,-1.5500,-0.2600,-26.8750,-19.8125,30.5000,0.68542480468750,0.15417480468750,0.70806884765625,0.07092285156250,moving
440.78,3,0,3,0,7.2800,-1.1000,-0.6100,-25.6875,-12.1250,37.3125,0.68627929687500,0.15502929687500,0.70672607421875,0.07458496093750,moving
440.79,3,0,3,0,7.4800,-0.9300,-0.7700,-27.0625,0.6875,33.1250,0.68640136718750,0.15545654296875,0.70611572265625,0.07824707031250,moving
440.80,3,0,3,0,7.4300,-1.0300,-0.9300,-31.0625,19.6875,18.1875,0.68548583984375,0.15460205078125,0.70684814453125,0.08154296875000,moving
440.81,3,0,3,0,7.4300,-1.0300,-0.9300,-31.0625,19.6875,18.1875,0.68548583984375,0.15460205078125,0.70684814453125,0.08154296875000,moving
440.81,3,0,3,0,5.9800,-1.9800,-1.6100,-29.6250,24.5000,2.1250,0.68432617187500,0.15277099609375,0.70806884765625,0.08380126953125,moving
440.82,3,0,3,0,5.7900,-1.7100,-1.7000,-18.8125,10.8125,0.3750,0.68389892578125,0.15155029296875,0.70855712890625,0.08514404296875,moving
440.83,3,0,3,0,5.4600,-1.4900,-1.3500,-3.7500,-9.1875,2.0625,0.68450927734375,0.15155029296875,0.70794677734375,0.08538818359375,moving
440.84,3,0,3,0,4.6100,-1.3400,-0.9900,9.4375,-18.8125,1.3125,0.68554687500000,0.15234375000000,0.70690917968750,0.08465576171875,moving
440.85,3,0,3,0,1.2900,-0.0100,-1.2400,18.6250,-20.0625,-1.8750,0.68652343750000,0.15350341796875,0.70581054687500,0.08312988281250,moving
440.86,3,0,3,0,-1.6700,1.1700,-1.8400,30.1875,-22.5625,-14.6250,0.68762207031250,0.15460205078125,0.70489501953125,0.08007812500000,moving
440.87,3,0,3,0,-5.9800,2.6000,-2.3800,42.8750,-30.0000,-42.7500,0.68914794921875,0.15472412109375,0.70397949218750,0.07446289062500,moving
440.88,3,0,3,0,-11.2200,3.6900,-2.4300,44.1875,-49.3125,-76.6250,0.69207763671875,0.15301513671875,0.70233154296875,0.06652832031250,moving
440.89,3,0,3,0,-22.1700,1.8100,0.3700,49.1250,-82.9375,-83.6250,0.69689941406250,0.15136718750000,0.69866943359375,0.05731201171875,moving
440.90,3,0,3,0,-19.1800,0.0700,4.5700,66.0625,-109.9375,-30.7500,0.70281982421875,0.15405273437500,0.69268798828125,0.04998779296875,moving
440.91,3,0,3,0,-10.8700,0.8900,7.6700,68.3750,-89.8750,18.7500,0.70721435546875,0.15972900390625,0.68719482421875,0.04577636718750,moving
440.92,3,0,3,0,-2.2200,1.7600,5.7000,37.4375,-30.1875,28.6250,0.70837402343750,0.16387939453125,0.68505859375000,0.04492187500000,moving
440.93,3,0,3,0,-2.5500,1.3600,2.3300,3.7500,45.3125,11.5000,0.70556640625000,0.16461181640625,0.68768310546875,0.04602050781250,moving
440.94,3,0,3,0,-1.2600,0.6700,0.3500,-29.3750,85.0000,-1.1250,0.70092773437500,0.16241455078125,0.69281005859375,0.04895019531250,moving
440.95,3,0,3,0,1.3200,0.0300,-0.4800,-49.7500,89.5000,0.0000,0.69616699218750,0.15899658203125,0.69799804687500,0.05322265625000,moving
440.96,3,0,3,0,3.9900,-0.6600,-0.8300,-53.6250,61.6250,3.3750,0.69311523437500,0.15563964843750,0.70147705078125,0.05755615234375,moving
440.97,3,0,3,0,5.5800,-1.3500,-1.2300,-37.5625,44.7500,7.7500,0.69085693359375,0.15362548828125,0.70385742187500,0.06091308593750,moving
440.98,3,0,3,0,6.8700,-1.2700,-0.5300,-32.0000,27.6875,10.1875,0.68951416015625,0.15216064453125,0.70520019531250,0.06390380859375,moving
440.99,3,0,3,0,6.9200,-2.3800,0.1700,-60.1875,17.1875,8.1875,0.68920898437500,0.14892578125000,0.70574951171875,0.06829833984375,moving
441.00,3,0,3,0,7.6100,-2.2200,-0.1100,-60.0000,13.0625,21.3750,0.68908691406250,0.14660644531250,0.70593261718750,0.07348632812500,moving
441.01,3,0,3,0,7.9200,-1.4200,-0.6600,-35.6875,5.1250,35.0625,0.68896484375000,0.14654541015625,0.70550537109375,0.07781982421875,moving
441.02,3,0,3,0,8.0000,-0.8600,-1.2100,-14.1875,-0.1875,36.6875,0.68890380859375,0.14794921875000,0.70495605468750,0.08093261718750,moving
441.03,3,0,3,0,8.5800,-0.7800,-1.2400,-7.3750,0.5625,25.6250,0.68878173828125,0.14910888671875,0.70458984375000,0.08294677734375,moving
441.04,3,0,3,0,8.0700,-1.2800,-1.2000,-11.0625,9.2500,7.0000,0.68829345703125,0.14880371093750,0.70501708984375,0.08416748046875,moving
441.05,3,0,3,0,6.8000,-1.9800,-1.7200,-8.1875,19.2500,-4.0000,0.68725585937500,0.14788818359375,0.70617675781250,0.08465576171875,moving
441.06,3,0,3,0,6.8000,-1.9800,-1.7200,-8.1875,19.2500,-4.0000,0.68725585937500,0.14788818359375,0.70617675781250,0.08465576171875,moving
441.07,3,0,3,0,6.2600,-1.9600,-1.8700,5.3750,7.2500,-0.4375,0.68670654296875,0.14819335937500,0.70660400390625,0.08447265625000,moving
441.07,3,0,3,0,5.4800,-1.4800,-0.9800,22.0000,-11.6875,3.8125,0.68713378906250,0.14984130859375,0.70605468750000,0.08319091796875,moving
441.08,3,0,3,0,4.6400,-1.3600,-0.4900,28.8125,-21.7500,5.1875,0.68804931640625,0.15203857421875,0.70489501953125,0.08142089843750,moving
441.09,3,0,3,0,3.6000,-1.2700,-0.4600,31.3125,-24.1250,3.4375,0.68908691406250,0.15429687500000,0.70361328125000,0.07940673828125,moving
441.10,3,0,3,0,0.3400,-0.0600,-0.3200,35.5625,-30.0625,-4.6875,0.69049072265625,0.15637207031250,0.70208740234375,0.07653808593750,moving
441.11,3,0,3,0,-2.6800,1.0000,-0.7800,37.8125,-37.5000,-24.8750,0.69238281250000,0.15740966796875,0.70043945312500,0.07220458984375,moving
441.12,3,0,3,0,-6.9600,2.5700,-1.6000,36.8125,-38.0000,-51.7500,0.69451904296875,0.15667724609375,0.69903564453125,0.06628417968750,moving
441.13,3,0,3,0,-12.0600,4.6300,-1.8600,30.5000,-39.3750,-80.8750,0.69696044921875,0.15386962890625,0.69793701171875,0.05902099609375,moving
441.14,3,0,3,0,-26.3300,4.6700,0.1200,31.5000,-63.3750,-89.9375,0.70080566406250,0.15063476562500,0.69543457031250,0.05078125000000,moving
441.15,3,0,3,0,-18.5400,2.8200,4.6800,53.4375,-95.3125,-30.1250,0.70599365234375,0.15246582031250,0.69018554687500,0.04443359375000,moving
441.16,3,0,3,0,-8.3800,1.9500,7.6200,65.7500,-84.9375,28.3125,0.71008300781250,0.15856933593750,0.68481445312500,0.04107666015625,moving
441.17,3,0,3,0,-2.7900,-0.1300,8.7100,49.6250,-45.3750,29.3750,0.71197509765625,0.16351318359375,0.68176269531250,0.03930664062500,moving
441.18,3,0,3,0,-4.0500,0.4500,2.9200,5.0000,33.7500,9.0000,0.70983886718750,0.16424560546875,0.68371582031250,0.04003906250000,moving
441.19,3,0,3,0,-2.5200,0.8000,1.2300,-35.6250,63.6250,-1.6875,0.70660400390625,0.16174316406250,0.68756103515625,0.04296875000000,moving
441.20,3,0,3,0,-0.3300,0.1000,0.4600,-52.0000,60.8125,-5.0000,0.70367431640625,0.15802001953125,0.69116210937500,0.04669189453125,moving
441.21,3,0,3,0,2.2300,-0.6800,0.1900,-52.6250,31.1250,-4.6875,0.70257568359375,0.15435791015625,0.69287109375000,0.04998779296875,moving
441.22,3,0,3,0,3.2300,-1.0500,0.1800,-45.5625,0.1250,-3.3125,0.70318603515625,0.15136718750000,0.69274902343750,0.05255126953125,moving
441.23,3,0,3,0,4.1600,-1.3500,-0.0800,-45.1250,-3.2500,-0.0625,0.70397949218750,0.14862060546875,0.69232177734375,0.05523681640625,moving
441.24,3,0,3,0,4.6100,-1.3100,-0.3000,-47.6250,9.1875,4.2500,0.70404052734375,0.14587402343750,0.69256591796875,0.05847167968750,moving
441.25,3,0,3,0,6.2300,-1.2100,-0.9700,-47.4375,24.7500,8.0625,0.70306396484375,0.14331054687500,0.69372558593750,0.06213378906250,moving
441.26,3,0,3,0,6.4700,-1.1200,-1.7200,-44.7500,34.4375,6.4375,0.70153808593750,0.14080810546875,0.69549560546875,0.06567382812500,moving
441.27,3,0,3,0,7.1000,-1.0000,-2.0500,-39.5625,35.1250,0.0000,0.69989013671875,0.13818359375000,0.69738769531250,0.06854248046875,moving
441.28,3,0,3,0,7.1500,-0.7100,-2.4200,-28.3125,29.3750,-6.6875,0.69848632812500,0.13586425781250,0.69909667968750,0.07019042968750,moving
441.29,3,0,3,0,6.8800,-1.1300,-2.7100,-16.3125,21.2500,-10.6250,0.69744873046875,0.13409423828125,0.70043945312500,0.07080078125000,moving
441.30,3,0,3,0,6.6800,-1.2400,-2.4400,-1.1250,10.0625,-6.8125,0.69689941406250,0.13354492187500,0.70111083984375,0.07055664062500,moving
441.31,3,0,3,0,6.3100,-1.4200,-1.9100,11.1250,3.5625,-2.1250,0.69653320312500,0.13403320312500,0.70141601562500,0.06982421875000,moving
441.32,3,0,3,0,6.3100,-1.4200,-1.9100,11.1250,3.5625,-2.1250,0.69653320312500,0.13403320312500,0.70141601562500,0.06982421875000,moving
441.32,3,0,3,0,5.7300,-1.6200,-1.0700,17.1250,-0.1250,0.9375,0.69635009765625,0.13513183593750,0.70153808593750,0.06878662109375,moving
441.33,3,0,3,0,5.4800,-1.7100,-0.5300,22.2500,-4.0000,2.0000,0.69628906250000,0.13665771484375,0.70135498046875,0.06750488281250,moving
441.34,3,0,3,0,5.1000,-1.6700,-0.1400,21.1250,-5.6875,2.4375,0.69635009765625,0.13812255859375,0.70111083984375,0.06628417968750,moving
441.35,3,0,3,0,4.4700,-1.5700,-0.0300,15.7500,-1.7500,1.8750,0.69628906250000,0.13922119140625,0.70111083984375,0.06542968750000,moving
441.36,3,0,3,0,2.7100,-0.6800,-0.3600,12.7500,1.7500,-0.2500,0.69604492187500,0.13995361328125,0.70129394531250,0.06469726562500,moving
441.37,3,0,3,0,1.2100,0.0700,-0.7300,11.1875,4.4375,-2.3125,0.69561767578125,0.14050292968750,0.70166015625000,0.06390380859375,moving
441.38,3,0,3,0,-0.6200,1.0300,-1.3600,14.5625,9.8750,-3.0625,0.69482421875000,0.14111328125000,0.70233154296875,0.06298828125000,moving
441.39,3,0,3,0,-6.6500,3.3500,-2.3900,26.0625,10.9375,-6.6875,0.69384765625000,0.14227294921875,0.70324707031250,0.06109619140625,moving
441.40,3,0,3,0,-11.2600,4.4200,-3.1600,42.1250,-0.3125,-14.6250,0.69342041015625,0.14392089843750,0.70367431640625,0.05761718750000,moving
441.41,3,0,3,0,-16.1600,5.6100,-3.0800,58.5625,-26.8750,-14.1250,0.69439697265625,0.14672851562500,0.70251464843750,0.05285644531250,moving
441.42,3,0,3,0,-18.1100,4.6500,-1.1500,72.1875,-49.6875,4.4375,0.69647216796875,0.15161132812500,0.69976806640625,0.04803466796875,moving
441.43,3,0,3,0,-10.7000,1.0700,5.9000,96.7500,-69.5000,16.6250,0.69927978515625,0.15881347656250,0.69567871093750,0.04223632812500,moving
441.44,3,0,3,0,-6.9200,0.2300,6.6500,92.7500,-55.6875,18.0625,0.70129394531250,0.16577148437500,0.69232177734375,0.03692626953125,moving
441.45,3,0,3,0,-5.5200,1.1300,5.4100,21.1250,-15.5000,13.8125,0.70190429687500,0.16790771484375,0.69128417968750,0.03631591796875,moving
441.46,3,0,3,0,-6.1100,0.8400,3.2600,-29.4375,4.0000,-2.6250,0.70208740234375,0.16595458984375,0.69146728515625,0.03796386718750,moving
441.47,3,0,3,0,-3.2100,1.5000,0.0600,-36.0625,20.2500,-6.4375,0.70141601562500,0.16326904296875,0.69268798828125,0.04003906250000,moving
441.48,3,0,3,0,-1.6600,0.6400,-0.8400,-39.8750,36.2500,-7.5625,0.69976806640625,0.16027832031250,0.69482421875000,0.04248046875000,moving
441.49,3,0,3,0,-0.3700,0.4800,-1.4100,-34.5625,38.8125,-5.6875,0.69793701171875,0.15765380859375,0.69714355468750,0.04479980468750,moving
441.50,3,0,3,0,1.6400,-0.6100,-0.5900,-41.1875,25.3125,-6.8750,0.69696044921875,0.15460205078125,0.69860839843750,0.04724121093750,moving
441.51,3,0,3,0,2.5300,-0.6100,-0.3100,-51.2500,24.3750,-3.6250,0.69622802734375,0.15118408203125,0.69995117187500,0.05047607421875,moving
441.53,3,0,3,0,4.1700,-0.8000,-0.4500,-45.5625,24.1250,2.3125,0.69531250000000,0.14843750000000,0.70117187500000,0.05371093750000,moving
441.54,3,0,3,0,5.5700,-1.1200,-0.5300,-43.6875,23.5000,4.0625,0.69439697265625,0.14593505859375,0.70233154296875,0.05694580078125,moving
441.54,3,0,3,0,7.4400,-2.3600,-0.6500,-49.1875,22.1875,4.8750,0.69366455078125,0.14312744140625,0.70336914062500,0.06054687500000,moving
441.57,3,0,3,0,8.5400,-1.6900,-0.8000,-46.8125,12.9375,11.3125,0.69329833984375,0.13861083984375,0.70391845703125,0.06793212890625,moving
441.57,3,0,3,0,8.6100,-1.6100,-1.0000,-42.5625,16.5625,8.0000,0.69274902343750,0.13641357421875,0.70452880859375,0.07122802734375,moving
441.58,3,0,3,0,9.1100,-1.8500,-1.4800,-33.2500,26.4375,4.0000,0.69152832031250,0.13452148437500,0.70587158203125,0.07385253906250,moving
441.59,3,0,3,0,9.1100,-1.8500,-1.4800,-33.2500,26.4375,4.0000,0.69152832031250,0.13452148437500,0.70587158203125,0.07385253906250,moving
441.59,3,0,3,0,8.9700,-1.9300,-1.4700,-22.5000,31.2500,-0.0625,0.68981933593750,0.13293457031250,0.70764160156250,0.07562255859375,moving
441.60,3,0,3,0,8.4000,-1.9500,-1.5600,-12.3750,24.7500,-4.1250,0.68847656250000,0.13177490234375,0.70910644531250,0.07641601562500,moving
441.62,3,0,3,0,7.2900,-1.8500,-1.0100,-2.0000,7.3125,-5.4375,0.68804931640625,0.13128662109375,0.70959472656250,0.07629394531250,moving
441.63,3,0,3,0,6.9100,-1.6000,-0.8100,5.2500,2.1250,-3.2500,0.68786621093750,0.13140869140625,0.70977783203125,0.07580566406250,moving
441.63,3,0,3,0,6.3700,-1.2700,-0.6500,5.2500,7.6250,-1.1250,0.68737792968750,0.13159179687500,0.71032714843750,0.07550048828125,moving
441.64,3,0,3,0,5.5200,-0.8600,-0.9000,7.0000,10.6250,0.0000,0.68658447265625,0.13195800781250,0.71099853515625,0.07519531250000,moving
441.65,3,0,3,0,3.2200,-0.0600,-1.2300,13.5000,3.7500,-1.2500,0.68621826171875,0.13269042968750,0.71130371093750,0.07434082031250,moving
441.66,3,0,3,0,1.8400,0.3200,-1.3700,22.7500,-5.7500,-4.9375,0.68634033203125,0.13378906250000,0.71118164062500,0.07257080078125,moving
441.67,3,0,3,0,0.1600,0.6100,-1.6100,30.1250,-20.6875,-11.4375,0.68731689453125,0.13500976562500,0.71026611328125,0.06976318359375,moving
441.68,3,0,3,0,-6.7400,2.4700,-1.3900,38.6875,-28.5000,-23.5625,0.68878173828125,0.13604736328125,0.70910644531250,0.06561279296875,moving
441.69,3,0,3,0,-11.2300,4.3500,-1.3700,34.6250,-30.6875,-40.8125,0.69042968750000,0.13580322265625,0.70794677734375,0.06066894531250,moving
441.71,3,0,3,0,-18.8400,4.3700,-1.1200,42.9375,-38.9375,-63.4375,0.69268798828125,0.13464355468750,0.70654296875000,0.05371093750000,moving
441.71,3,0,3,0,-25.6600,1.5200,-0.4900,75.6250,-77.5000,-60.3750,0.69677734375000,0.13586425781250,0.70288085937500,0.04449462890625,moving
441.72,3,0,3,0,-9.3000,0.1800,7.4100,64.8750,-87.8125,-8.1250,0.70141601562500,0.13964843750000,0.69787597656250,0.03900146484375,moving
441.73,3,0,3,0,-2.4700,-0.0600,7.2500,24.0000,-38.0000,28.9375,0.70330810546875,0.14300537109375,0.69525146484375,0.03881835937500,moving
441.74,3,0,3,0,-0.7500,-0.6300,4.6600,0.6250,12.9375,25.1250,0.70239257812500,0.14453125000000,0.69573974609375,0.04046630859375,moving
441.75,3,0,3,0,-0.2400,-0.9300,2.3800,-17.7500,57.5000,13.7500,0.69909667968750,0.14410400390625,0.69903564453125,0.04315185546875,moving
441.76,3,0,3,0,3.0400,-1.8100,0.6400,-30.5000,74.8750,9.0625,0.69488525390625,0.14251708984375,0.70336914062500,0.04650878906250,moving
441.77,3,0,3,0,4.2500,-1.8500,0.2900,-36.3125,70.5625,12.1250,0.69091796875000,0.14074707031250,0.70733642578125,0.05035400390625,moving
441.79,3,0,3,0,5.3200,-2.0500,0.3500,-40.3750,52.8750,16.4375,0.68804931640625,0.13909912109375,0.71008300781250,0.05444335937500,moving
441.79,3,0,3,0,7.0100,-1.7200,-0.2900,-45.3125,42.3750,26.5000,0.68585205078125,0.13781738281250,0.71209716796875,0.05938720703125,moving
441.80,3,0,3,0,7.2400,-0.6000,0.0800,-44.6250,35.9375,42.5625,0.68395996093750,0.13757324218750,0.71350097656250,0.06512451171875,moving
441.81,3,0,3,0,6.6600,0.3400,-1.2400,-43.8125,37.4375,52.4375,0.68182373046875,0.13800048828125,0.71484375000000,0.07141113281250,moving
441.82,3,0,3,0,6.3800,1.7000,-1.6800,-28.3750,22.1875,48.5000,0.68048095703125,0.13922119140625,0.71539306640625,0.07635498046875,moving
441.83,3,0,3,0,2.0200,1.3100,-3.0900,-5.3125,19.0625,18.9375,0.67919921875000,0.13995361328125,0.71624755859375,0.07806396484375,moving
441.84,3,0,3,0,0.2100,0.3900,-3.0800,17.8125,0.8750,-10.0000,0.67901611328125,0.14038085937500,0.71655273437500,0.07635498046875,moving
441.86,3,0,3,0,-1.7300,0.7900,-2.5400,40.8125,-24.9375,-16.1875,0.68017578125000,0.14196777343750,0.71551513671875,0.07257080078125,moving
441.87,3,0,3,0,-3.1400,1.5900,-1.1900,50.7500,-43.6875,-21.3750,0.68237304687500,0.14392089843750,0.71350097656250,0.06756591796875,moving
441.87,3,0,3,0,-3.1400,1.5900,-1.1900,50.7500,-43.6875,-21.3750,0.68237304687500,0.14392089843750,0.71350097656250,0.06756591796875,moving
441.88,3,0,3,0,-3.5000,-0.4700,1.6900,47.0625,-37.5000,-18.4375,0.68420410156250,0.14581298828125,0.71179199218750,0.06304931640625,moving
441.88,3,0,3,0,-2.7400,-0.1000,2.8500,43.3125,-30.0000,1.6250,0.68548583984375,0.14862060546875,0.71020507812500,0.06011962890625,moving
441.89,3,0,3,0,-2.4000,-0.2700,3.3700,32.5000,-24.4375,11.6875,0.68652343750000,0.15142822265625,0.70874023437500,0.05847167968750,moving
441.90,3,0,3,0,-1.1600,-0.9600,1.1900,16.1250,-18.8750,8.0625,0.68743896484375,0.15301513671875,0.70758056640625,0.05773925781250,moving
441.91,3,0,3,0,0.1300,-0.7100,1.4400,14.4375,-15.0000,7.8125,0.68811035156250,0.15441894531250,0.70666503906250,0.05706787109375,moving
441.93,3,0,3,0,-0.3900,-0.6800,0.9200,4.2500,0.0000,5.3750,0.68804931640625,0.15502929687500,0.70660400390625,0.05712890625000,moving
441.94,3,0,3,0,0.0500,-0.9200,1.0900,-32.1250,3.2500,-2.3125,0.68829345703125,0.15295410156250,0.70666503906250,0.05902099609375,moving
441.95,3,0,3,0,0.8600,-0.4100,-0.5600,-13.9375,-2.3125,-0.0625,0.68859863281250,0.15209960937500,0.70642089843750,0.05987548828125,moving
441.96,3,0,3,0,1.0900,-0.7200,-1.1000,0.4375,13.3750,-0.0625,0.68780517578125,0.15203857421875,0.70727539062500,0.06005859375000,moving
441.96,3,0,3,0,1.1000,-0.6600,-1.5100,-1.6875,31.2500,2.6250,0.68585205078125,0.15191650390625,0.70910644531250,0.06072998046875,moving
441.97,3,0,3,0,1.1600,-0.5300,-1.1200,5.9375,15.2500,4.5625,0.68481445312500,0.15252685546875,0.70996093750000,0.06085205078125,moving
441.98,3,0,3,0,0.7300,-0.2400,0.2000,13.5000,-5.1250,5.0625,0.68493652343750,0.15362548828125,0.70965576171875,0.06024169921875,moving
441.99,3,0,3,0,0.5200,-0.2500,0.6400,11.3125,-7.3750,4.9375,0.68524169921875,0.15466308593750,0.70922851562500,0.05969238281250,moving
442.01,3,0,3,0,0.3500,-0.2300,0.8200,11.0000,-6.7500,3.8125,0.68548583984375,0.15557861328125,0.70880126953125,0.05914306640625,moving
442.02,3,0,3,0,0.0900,0.0200,1.0000,8.6875,-6.3750,2.2500,0.68572998046875,0.15631103515625,0.70843505859375,0.05865478515625,moving
442.03,3,0,3,0,0.0400,0.2200,0.7700,2.5625,-5.5000,0.6250,0.68603515625000,0.15649414062500,0.70812988281250,0.05847167968750,moving
442.04,3,0,3,0,0.0400,0.3400,0.2200,-0.9375,-2.6250,0.4375,0.68621826171875,0.15649414062500,0.70794677734375,0.05853271484375,moving
442.04,3,0,3,0,0.1200,0.2800,-0.1500,0.1875,-2.7500,1.1250,0.68640136718750,0.15655517578125,0.70776367187500,0.05853271484375,moving
442.05,3,0,3,0,0.1200,-0.0400,-0.2500,0.8750,-2.8750,2.1250,0.68658447265625,0.15673828125000,0.70758056640625,0.05859375000000,stop
442.06,3,0,3,0,0.0900,-0.2000,-0.0400,2.0000,-3.6250,2.6875,0.68676757812500,0.15704345703125,0.70733642578125,0.05853271484375,stop
442.07,3,0,3,0,0.0700,-0.2600,0.1500,4.1250,-3.9375,2.6250,0.68695068359375,0.15747070312500,0.70703125000000,0.05841064453125,stop
442.08,3,0,3,0,0.0900,-0.2700,0.1600,4.1875,-2.3125,1.8750,0.68701171875000,0.15789794921875,0.70690917968750,0.05822753906250,stop
442.10,3,0,3,0,0.1700,-0.1700,0.0600,3.9375,-2.2500,1.0625,0.68707275390625,0.15820312500000,0.70678710937500,0.05804443359375,stop
442.11,3,0,3,0,0.3200,-0.0200,0.1100,3.6875,-2.1250,0.9375,0.68713378906250,0.15850830078125,0.70666503906250,0.05780029296875,stop
442.12,3,0,3,0,0.3800,0.0500,0.1000,3.7500,-2.0000,0.8750,0.68725585937500,0.15875244140625,0.70654296875000,0.05761718750000,stop
442.13,3,0,3,0,0.4800,0.2000,0.1500,4.5000,-2.7500,0.8750,0.68731689453125,0.15911865234375,0.70635986328125,0.05737304687500,stop
442.13,3,0,3,0,0.4900,0.2300,0.1600,4.5000,-3.0625,1.1250,0.68743896484375,0.15948486328125,0.70617675781250,0.05706787109375,stop
442.14,3,0,3,0,0.4600,0.3200,0.1600,4.3750,-2.5000,1.5000,0.68756103515625,0.15985107421875,0.70605468750000,0.05688476562500,stop
442.15,3,0,3,0,0.4000,0.3200,0.2000,4.1875,-2.4375,1.8750,0.68762207031250,0.16021728515625,0.70587158203125,0.05670166015625,stop
442.17,3,0,3,0,0.3200,0.2000,0.3200,3.6250,-3.3750,2.1250,0.68780517578125,0.16058349609375,0.70568847656250,0.05657958984375,stop
442.18,3,0,3,0,0.2400,0.1200,0.2900,1.6250,-3.0625,2.1875,0.68792724609375,0.16082763671875,0.70544433593750,0.05651855468750,stop
442.19,3,0,3,0,0.1600,-0.1400,0.0000,-0.2500,-3.5625,2.0000,0.69635009765625,0.16613769531250,0.69519042968750,0.06488037109375,stop
442.20,3,0,3,0,0.1700,-0.2500,-0.0100,-2.0625,-4.3125,1.6875,0.69665527343750,0.16613769531250,0.69488525390625,0.06506347656250,stop
442.21,3,0,3,0,0.1300,-0.3300,-0.0200,-3.5000,-4.8125,1.5625,0.69696044921875,0.16601562500000,0.69458007812500,0.06530761718750,stop
442.21,3,0,3,0,0.1300,-0.3400,-0.0100,-4.4375,-4.3750,1.3125,0.69726562500000,0.16589355468750,0.69421386718750,0.06561279296875,stop
442.22,3,0,3,0,0.1400,-0.4100,-0.0400,-4.9375,-3.5000,1.1250,0.69757080078125,0.16564941406250,0.69396972656250,0.06591796875000,stop
442.24,3,0,3,0,0.1300,-0.5300,-0.1200,-5.1250,-2.6250,0.7500,0.69781494140625,0.16540527343750,0.69378662109375,0.06622314453125,stop
442.25,3,0,3,0,0.1100,-0.5600,-0.2200,-4.9375,-1.1250,0.3750,0.69793701171875,0.16510009765625,0.69366455078125,0.06652832031250,stop
442.26,3,0,3,0,0.1400,-0.5700,-0.1900,-3.6250,-0.4375,0.0625,0.69799804687500,0.16485595703125,0.69366455078125,0.06671142578125,stop
442.27,3,0,3,0,0.1000,-0.5000,-0.1400,-1.7500,-0.6875,0.0625,0.69799804687500,0.16455078125000,0.69378662109375,0.06652832031250,stop
442.28,3,0,3,0,0.1100,-0.3100,0.0500,-0.1250,-1.3125,-0.0625,0.69805908203125,0.16436767578125,0.69372558593750,0.06634521484375,stop
442.29,3,0,3,0,0.1300,-0.1900,0.1000,0.4375,-2.2500,0.0000,0.69824218750000,0.16430664062500,0.69360351562500,0.06622314453125,stop
442.29,3,0,3,0,0.1300,-0.0800,0.1300,0.0000,-2.9375,-0.4375,0.69842529296875,0.16436767578125,0.69342041015625,0.06616210937500,stop
442.30,3,0,3,0,0.2200,-0.0100,-0.0300,-0.6875,-3.0000,-0.6875,0.69860839843750,0.16424560546875,0.69323730468750,0.06616210937500,stop
442.32,3,0,3,0,0.2700,-0.0400,-0.1100,-1.8750,-2.6250,-0.9375,0.69879150390625,0.16412353515625,0.69311523437500,0.06616210937500,stop
442.33,3,0,3,0,0.3200,-0.0400,-0.1800,-3.0000,-2.5625,-1.0000,0.69897460937500,0.16387939453125,0.69293212890625,0.06622314453125,stop
442.34,3,0,3,0,0.3400,-0.0100,-0.3000,-4.1250,-2.3125,-1.0625,0.69921875000000,0.16357421875000,0.69281005859375,0.06640625000000,stop
442.35,3,0,3,0,0.4700,-0.0500,-0.3100,-4.5625,-2.1250,-0.9375,0.69940185546875,0.16320800781250,0.69262695312500,0.06658935546875,stop
442.36,3,0,3,0,0.3500,-0.0200,-0.7400,-3.5625,1.1250,0.0625,0.69940185546875,0.16302490234375,0.69268798828125,0.06683349609375,stop
442.37,3,0,3,0,0.1500,-0.3000,-0.0600,0.0000,0.3125,-0.1250,0.69940185546875,0.16302490234375,0.69268798828125,0.06683349609375,stop
442.37,3,0,3,0,0.1500,-0.3000,-0.0600,0.0000,0.3125,-0.1250,0.69940185546875,0.16302490234375,0.69268798828125,0.06683349609375,stop
442.38,3,0,3,0,0.2600,-0.0700,0.2300,-11.8125,-4.0000,-0.8125,0.69982910156250,0.16223144531250,0.69238281250000,0.06744384765625,stop
442.38,3,0,3,0,0.3300,-0.1700,-0.2900,-6.9375,-3.3750,-0.8125,0.70007324218750,0.16180419921875,0.69219970703125,0.06774902343750,stop
442.39,3,0,3,0,0.2500,-0.2200,-0.8500,-5.8125,2.6250,-0.1250,0.69976806640625,0.16143798828125,0.69256591796875,0.06805419921875,stop
442.41,3,0,3,0,0.2400,-0.3000,-0.5400,-7.3125,0.0000,-0.3750,0.69958496093750,0.16094970703125,0.69281005859375,0.06835937500000,stop
442.42,3,0,3,0,0.2200,-0.2700,-0.3800,-5.6875,-0.6875,-0.0625,0.69970703125000,0.16064453125000,0.69274902343750,0.06872558593750,stop
442.43,3,0,3,0,0.1800,-0.3400,-0.2700,-3.7500,1.4375,-0.0625,0.69964599609375,0.16040039062500,0.69281005859375,0.06896972656250,stop
442.44,3,0,3,0,0.1800,-0.3600,-0.1700,-2.9375,0.1250,0.0000,0.69970703125000,0.16021728515625,0.69281005859375,0.06915283203125,stop
442.45,3,0,3,0,0.1800,-0.3300,-0.1000,-3.1875,0.2500,0.0000,0.69976806640625,0.15997314453125,0.69274902343750,0.06933593750000,stop
442.46,3,0,3,0,0.2000,-0.2700,-0.0900,-2.6250,1.0625,0.0000,0.69970703125000,0.15985107421875,0.69281005859375,0.06951904296875,stop
442.46,3,0,3,0,0.2200,-0.3100,-0.0500,-2.1250,0.8750,0.1875,0.69970703125000,0.15966796875000,0.69287109375000,0.06964111328125,stop
442.48,3,0,3,0,0.2100,-0.3200,-0.0500,-2.2500,0.9375,0.2500,0.69964599609375,0.15954589843750,0.69293212890625,0.06976318359375,stop
442.49,3,0,3,0,0.2300,-0.3300,-0.0800,-1.7500,1.0000,0.1875,0.69964599609375,0.15942382812500,0.69299316406250,0.06988525390625,stop
442.50,3,0,3,0,0.1800,-0.3100,-0.1100,-1.8750,1.0000,0.0000,0.69958496093750,0.15924072265625,0.69305419921875,0.06994628906250,stop
442.51,3,0,3,0,0.1600,-0.3200,-0.0800,-1.5000,0.8750,0.0000,0.69952392578125,0.15905761718750,0.69317626953125,0.06994628906250,stop
442.52,3,0,3,0,0.1700,-0.2600,-0.0800,-1.5000,1.0625,-0.1250,0.69946289062500,0.15887451171875,0.69329833984375,0.07000732421875,stop
442.53,3,0,3,0,0.1500,-0.2000,-0.0700,-1.3125,0.5625,-0.0625,0.69940185546875,0.15875244140625,0.69335937500000,0.07000732421875,stop
442.54,3,0,3,0,0.1800,-0.1700,-0.1400,-1.2500,0.2500,0.0000,0.69940185546875,0.15863037109375,0.69335937500000,0.07006835937500,stop
442.54,3,0,3,0,0.1600,-0.1900,-0.1600,-1.1875,0.5000,0.0000,0.69934082031250,0.15856933593750,0.69342041015625,0.07006835937500,stop
442.56,3,0,3,0,0.1700,-0.1800,-0.2200,-0.8750,0.8125,0.0000,0.69927978515625,0.15844726562500,0.69354248046875,0.07012939453125,stop
442.57,3,0,3,0,0.2100,-0.1400,-0.2600,-0.5000,0.6250,0.0000,0.69915771484375,0.15844726562500,0.69366455078125,0.07006835937500,stop
442.58,3,0,3,0,0.2400,-0.1500,-0.2400,-0.2500,0.5000,0.0000,0.69909667968750,0.15844726562500,0.69372558593750,0.07006835937500,stop
442.59,3,0,3,0,0.2300,-0.1400,-0.2400,0.0000,0.3750,0.0000,0.69903564453125,0.15838623046875,0.69378662109375,0.07000732421875,stop
442.60,3,0,3,0,0.2500,-0.1200,-0.1400,0.0000,0.1250,0.1250,0.69897460937500,0.15838623046875,0.69384765625000,0.07000732421875,stop
442.61,3,0,3,0,0.2500,-0.1000,-0.1400,0.0000,0.0000,0.1250,0.69897460937500,0.15838623046875,0.69384765625000,0.06994628906250,stop
442.62,3,0,3,0,0.2800,-0.1200,-0.1500,0.0000,0.1875,0.0000,0.69891357421875,0.15838623046875,0.69390869140625,0.06994628906250,stop
442.63,3,0,3,0,0.2300,-0.1200,-0.1100,-0.2500,-0.0625,0.0000,0.69891357421875,0.15838623046875,0.69390869140625,0.06994628906250,stop
442.64,3,0,3,0,0.2200,-0.1300,-0.1100,-0.5625,-0.2500,0.0000,0.69891357421875,0.15832519531250,0.69396972656250,0.06994628906250,stop
442.65,3,0,3,0,0.2100,-0.1400,-0.1500,-0.9375,-0.2500,-0.1875,0.69885253906250,0.15826416015625,0.69396972656250,0.07000732421875,stop
442.66,3,0,3,0,0.2200,-0.1700,-0.1500,-0.8750,-0.0625,0.0000,0.69885253906250,0.15820312500000,0.69403076171875,0.07006835937500,stop
442.67,3,0,3,0,0.2300,-0.2200,-0.1300,-0.8125,0.0000,-0.0625,0.69885253906250,0.15814208984375,0.69403076171875,0.07006835937500,stop
442.68,3,0,3,0,0.2000,-0.2900,-0.1900,-0.5625,-0.3125,-0.0625,0.69879150390625,0.15808105468750,0.69409179687500,0.07006835937500,stop
442.69,3,0,3,0,0.1800,-0.2800,-0.2300,-0.3750,-0.0625,-0.0625,0.69873046875000,0.15802001953125,0.69421386718750,0.06994628906250,stop
442.70,3,0,3,0,0.1800,-0.2900,-0.2100,0.0000,-0.2500,0.0000,0.69866943359375,0.15795898437500,0.69427490234375,0.06988525390625,stop
442.71,3,0,3,0,0.2000,-0.2500,-0.1900,0.3750,-0.0625,-0.1250,0.69860839843750,0.15789794921875,0.69439697265625,0.06982421875000,stop
442.72,3,0,3,0,0.2400,-0.2200,-0.1600,0.6250,-0.3125,-0.1875,0.69848632812500,0.15789794921875,0.69445800781250,0.06970214843750,stop
442.73,3,0,3,0,0.2200,-0.2200,-0.1500,1.2500,-0.1250,-0.0625,0.69842529296875,0.15795898437500,0.69451904296875,0.06958007812500,stop
442.74,3,0,3,0,0.1800,-0.2100,-0.1800,1.8750,0.0000,-0.1875,0.69836425781250,0.15802001953125,0.69464111328125,0.06939697265625,stop
442.75,3,0,3,0,0.1900,-0.1900,-0.0600,1.8750,-0.0625,-0.2500,0.69830322265625,0.15814208984375,0.69470214843750,0.06921386718750,stop
442.76,3,0,3,0,0.1800,-0.2200,-0.0200,2.1250,-0.4375,-0.2500,0.69824218750000,0.15820312500000,0.69470214843750,0.06909179687500,stop
442.77,3,0,3,0,0.2100,-0.2100,-0.0100,2.0000,-0.5625,-0.5000,0.69824218750000,0.15832519531250,0.69470214843750,0.06890869140625,stop
442.78,3,0,3,0,0.2300,-0.2000,-0.0400,1.3125,-0.0625,-0.5625,0.69824218750000,0.15832519531250,0.69476318359375,0.06878662109375,stop
442.79,3,0,3,0,0.2700,-0.1800,-0.1800,1.0000,0.1250,-0.6875,0.69818115234375,0.15832519531250,0.69482421875000,0.06860351562500,stop
442.80,3,0,3,0,0.2500,-0.1600,-0.1900,0.8125,0.1875,-0.5000,0.69812011718750,0.15838623046875,0.69482421875000,0.06854248046875,stop
442.81,3,0,3,0,0.2500,-0.1800,-0.2200,0.8750,0.6875,-0.4375,0.69805908203125,0.15844726562500,0.69494628906250,0.06848144531250,stop
442.82,3,0,3,0,0.2500,-0.1500,-0.2000,1.1875,1.0000,-0.3125,0.69787597656250,0.15844726562500,0.69506835937500,0.06835937500000,stop
442.83,3,0,3,0,0.2600,-0.1300,-0.2000,1.3125,1.2500,-0.2500,0.69775390625000,0.15856933593750,0.69525146484375,0.06829833984375,stop
442.84,3,0,3,0,0.2300,-0.1300,-0.1700,1.2500,1.1250,-0.1250,0.69763183593750,0.15863037109375,0.69537353515625,0.06817626953125,stop
442.85,3,0,3,0,0.2400,-0.1500,-0.1400,1.3750,1.0625,-0.1250,0.69750976562500,0.15869140625000,0.69549560546875,0.06811523437500,stop
442.87,3,0,3,0,0.1700,-0.2100,-0.0800,1.3125,1.0000,0.0625,0.69726562500000,0.15881347656250,0.69567871093750,0.06793212890625,stop
442.88,3,0,3,0,0.1900,-0.2300,-0.0700,1.4375,1.1250,0.1250,0.69714355468750,0.15887451171875,0.69580078125000,0.06781005859375,stop
442.89,3,0,3,0,0.1700,-0.2400,-0.0400,1.3125,0.8750,0.0000,0.69708251953125,0.15887451171875,0.69592285156250,0.06768798828125,stop
442.90,3,0,3,0,0.1800,-0.2700,0.0000,1.2500,0.8750,0.0625,0.69696044921875,0.15893554687500,0.69598388671875,0.06762695312500,stop
442.91,3,0,3,0,0.1900,-0.2500,-0.0100,1.0625,0.6250,0.0000,0.69689941406250,0.15893554687500,0.69604492187500,0.06750488281250,stop
442.92,3,0,3,0,0.2000,-0.2500,-0.0100,1.2500,0.8750,-0.1250,0.69683837890625,0.15899658203125,0.69610595703125,0.06738281250000,stop
442.93,3,0,3,0,0.2000,-0.2800,-0.0100,1.0625,0.7500,-0.3125,0.69677734375000,0.15899658203125,0.69622802734375,0.06726074218750,stop
442.94,3,0,3,0,0.2200,-0.2500,-0.0500,1.0625,0.4375,-0.3125,0.69677734375000,0.15905761718750,0.69622802734375,0.06719970703125,stop
442.95,3,0,3,0,0.1900,-0.2400,-0.0500,0.9375,0.5000,-0.4375,0.69671630859375,0.15905761718750,0.69622802734375,0.06707763671875,stop
442.96,3,0,3,0,0.1800,-0.2000,-0.0400,0.8750,0.8750,-0.3125,0.69665527343750,0.15905761718750,0.69635009765625,0.06701660156250,stop
442.97,3,0,3,0,0.2000,-0.1800,-0.0400,0.8125,1.0625,-0.2500,0.69653320312500,0.15905761718750,0.69641113281250,0.06689453125000,stop
442.98,3,0,3,0,0.1900,-0.2100,-0.0400,0.6250,0.9375,-0.2500,0.69647216796875,0.15911865234375,0.69653320312500,0.06683349609375,stop
442.99,3,0,3,0,0.2000,-0.2100,-0.0600,0.6875,0.9375,-0.4375,0.69641113281250,0.15911865234375,0.69659423828125,0.06677246093750,stop
443.00,3,0,3,0,0.2200,-0.2400,-0.1000,0.9375,0.6875,-0.5625,0.69635009765625,0.15911865234375,0.69665527343750,0.06665039062500,stop
443.01,3,0,3,0,0.2200,-0.2200,-0.0900,0.8125,0.6875,-0.5625,0.69622802734375,0.15905761718750,0.69677734375000,0.06652832031250,stop
443.02,3,0,3,0,0.2100,-0.2200,-0.1100,0.9375,0.7500,-0.6875,0.69616699218750,0.15905761718750,0.69689941406250,0.06640625000000,stop
443.03,3,0,3,0,0.2400,-0.2200,-0.1100,1.3125,0.7500,-0.5625,0.69610595703125,0.15905761718750,0.69696044921875,0.06628417968750,stop
443.04,3,0,3,0,0.2500,-0.2000,-0.1000,1.5000,0.8750,-0.3125,0.69598388671875,0.15911865234375,0.69708251953125,0.06616210937500,stop
443.05,3,0,3,0,0.2700,-0.1800,-0.0800,1.5625,1.4375,-0.1875,0.69586181640625,0.15917968750000,0.69720458984375,0.06604003906250,stop
443.06,3,0,3,0,0.2500,-0.1700,-0.0500,1.5000,1.5000,-0.0625,0.69573974609375,0.15924072265625,0.69732666015625,0.06597900390625,stop
443.07,3,0,3,0,0.2400,-0.1700,-0.0200,1.4375,1.8125,-0.0625,0.69555664062500,0.15930175781250,0.69744873046875,0.06585693359375,stop
443.08,3,0,3,0,0.2400,-0.2200,0.0000,1.1250,1.8750,-0.0625,0.69543457031250,0.15936279296875,0.69757080078125,0.06579589843750,stop
443.09,3,0,3,0,0.2300,-0.2400,-0.0300,0.9375,1.8125,-0.1875,0.69531250000000,0.15936279296875,0.69769287109375,0.06573486328125,stop
443.10,3,0,3,0,0.2300,-0.1900,-0.0300,1.0000,2.0000,-0.1250,0.69519042968750,0.15942382812500,0.69787597656250,0.06567382812500,stop
443.11,3,0,3,0,0.2100,-0.2200,-0.0200,1.0000,2.1875,-0.0625,0.69500732421875,0.15942382812500,0.69799804687500,0.06561279296875,stop
443.12,3,0,3,0,0.2200,-0.2000,-0.0300,1.1875,2.1250,0.0000,0.69488525390625,0.15948486328125,0.69818115234375,0.06555175781250,stop
443.13,3,0,3,0,0.2200,-0.2000,0.0000,0.9375,2.0625,0.0000,0.69470214843750,0.15948486328125,0.69830322265625,0.06549072265625,stop
443.14,3,0,3,0,0.2100,-0.2300,-0.0600,1.0000,2.1250,0.0000,0.69458007812500,0.15954589843750,0.69848632812500,0.06542968750000,stop
443.15,3,0,3,0,0.2600,-0.2400,-0.0100,1.1250,2.2500,0.0000,0.69439697265625,0.15954589843750,0.69860839843750,0.06536865234375,stop
443.16,3,0,3,0,0.2500,-0.2300,0.0000,1.1250,2.6250,0.1250,0.69421386718750,0.15960693359375,0.69879150390625,0.06530761718750,stop
443.17,3,0,3,0,0.2600,-0.2200,0.0500,0.9375,2.7500,0.1250,0.69403076171875,0.15960693359375,0.69897460937500,0.06524658203125,stop
443.19,3,0,3,0,0.3200,-0.2700,0.0300,0.7500,3.1875,0.6250,0.69366455078125,0.15966796875000,0.69940185546875,0.06518554687500,stop
443.20,3,0,3,0,0.3700,-0.3000,0.0000,0.3125,3.5625,0.6250,0.69342041015625,0.15966796875000,0.69958496093750,0.06524658203125,stop
443.21,3,0,3,0,0.3800,-0.2900,-0.0300,0.0000,3.6875,0.5000,0.69317626953125,0.15960693359375,0.69982910156250,0.06530761718750,stop
443.22,3,0,3,0,0.2700,-0.2400,0.0500,0.1250,3.4375,0.6875,0.69299316406250,0.15960693359375,0.70001220703125,0.06536865234375,stop
443.23,3,0,3,0,0.2100,-0.2200,0.0800,0.3750,3.5625,1.0000,0.69274902343750,0.15960693359375,0.70025634765625,0.06542968750000,stop
443.24,3,0,3,0,0.1700,-0.1700,0.1700,1.0625,3.3125,1.5000,0.69256591796875,0.15972900390625,0.70043945312500,0.06549072265625,stop
443.25,3,0,3,0,0.1700,-0.1400,0.1800,0.6250,2.5625,1.5625,0.69238281250000,0.15979003906250,0.70050048828125,0.06555175781250,stop
443.26,3,0,3,0,0.4000,-0.1500,0.0500,-0.6250,1.2500,1.1250,0.69232177734375,0.15979003906250,0.70056152343750,0.06561279296875,stop
443.27,3,0,3,0,0.5400,-0.1500,-0.1000,-1.9375,0.9375,0.7500,0.69232177734375,0.15972900390625,0.70062255859375,0.06579589843750,stop
443.28,3,0,3,0,0.6000,-0.1400,-0.2100,-2.3125,1.4375,0.6250,0.69226074218750,0.15960693359375,0.70068359375000,0.06604003906250,stop
443.29,3,0,3,0,0.5200,-0.1500,-0.2400,-0.9375,2.3750,1.1875,0.69207763671875,0.15960693359375,0.70080566406250,0.06616210937500,stop
443.30,3,0,3,0,0.4000,-0.1400,-0.0500,1.4375,2.6875,2.0000,0.69189453125000,0.15979003906250,0.70098876953125,0.06622314453125,stop
443.31,3,0,3,0,0.3600,-0.1600,0.0500,3.3125,2.6250,2.9375,0.69165039062500,0.16015625000000,0.70111083984375,0.06622314453125,stop
443.32,3,0,3,0,0.2700,-0.1900,0.1400,4.2500,2.3750,3.3750,0.69146728515625,0.16058349609375,0.70123291015625,0.06622314453125,stop
443.33,3,0,3,0,0.0800,-0.2600,0.3200,4.6250,0.2500,3.3125,0.69134521484375,0.16107177734375,0.70123291015625,0.06616210937500,stop
443.34,3,0,3,0,0.0600,-0.3200,0.4200,4.1250,-2.5625,2.7500,0.69146728515625,0.16149902343750,0.70104980468750,0.06604003906250,stop
443.35,3,0,3,0,0.0600,-0.3000,0.4600,3.3125,-4.4375,2.0000,0.69165039062500,0.16186523437500,0.70074462890625,0.06585693359375,stop
443.36,3,0,3,0,0.0900,-0.2400,0.4800,2.3750,-5.1250,1.0000,0.69195556640625,0.16210937500000,0.70043945312500,0.06567382812500,stop
443.37,3,0,3,0,-0.0100,-0.2500,0.6400,1.8750,-6.0625,0.4375,0.69226074218750,0.16223144531250,0.70007324218750,0.06549072265625,stop
443.38,3,0,3,0,-0.2300,-0.2800,0.5700,1.5625,-7.3750,-0.1875,0.69268798828125,0.16235351562500,0.69964599609375,0.06530761718750,stop
443.38,3,0,3,0,-0.2300,-0.2800,0.5700,1.5625,-7.3750,-0.1875,0.69268798828125,0.16235351562500,0.69964599609375,0.06530761718750,stop
443.39,3,0,3,0,-0.5200,-0.2900,0.4600,0.8125,-8.0000,-0.8125,0.69317626953125,0.16241455078125,0.69921875000000,0.06506347656250,stop
443.40,3,0,3,0,-0.9600,-0.1700,0.3600,1.2500,-8.0000,-1.2500,0.69366455078125,0.16247558593750,0.69873046875000,0.06481933593750,stop
443.41,3,0,3,0,-1.9900,0.2500,0.2500,3.2500,-8.0625,-1.1875,0.69415283203125,0.16265869140625,0.69830322265625,0.06439208984375,stop
443.42,3,0,3,0,-2.3700,0.4200,0.2400,5.6250,-8.0000,-0.4375,0.69451904296875,0.16302490234375,0.69781494140625,0.06390380859375,stop
443.43,3,0,3,0,-2.6500,0.4700,0.2500,7.5625,-9.3750,0.0000,0.69500732421875,0.16351318359375,0.69726562500000,0.06335449218750,stop
443.44,3,0,3,0,-2.8400,0.4800,-0.0200,5.3125,-9.2500,-0.1250,0.69549560546875,0.16387939453125,0.69677734375000,0.06286621093750,stop
443.45,3,0,3,0,-2.5400,0.5000,-0.1100,0.8125,-6.2500,-0.6875,0.69586181640625,0.16394042968750,0.69641113281250,0.06268310546875,stop
443.46,3,0,3,0,-1.9200,0.4900,-0.2000,-2.3125,-5.7500,-1.1875,0.69628906250000,0.16375732421875,0.69604492187500,0.06268310546875,stop
443.47,3,0,3,0,-1.2300,0.4800,-0.3100,-5.1250,-3.6875,-0.0625,0.69659423828125,0.16345214843750,0.69580078125000,0.06292724609375,stop
443.48,3,0,3,0,-0.2900,0.2300,-0.7700,-6.6250,2.3125,0.8750,0.69653320312500,0.16308593750000,0.69586181640625,0.06341552734375,stop
443.49,3,0,3,0,0.1600,0.1000,-0.9600,-8.3750,4.1875,1.7500,0.69635009765625,0.16265869140625,0.69604492187500,0.06408691406250,stop
443.51,3,0,3,0,1.4400,-0.5000,-0.7700,-4.5000,0.6875,2.7500,0.69635009765625,0.16229248046875,0.69610595703125,0.06506347656250,stop
443.52,3,0,3,0,1.7200,-0.5800,-0.5700,-3.2500,1.2500,2.5625,0.69628906250000,0.16223144531250,0.69610595703125,0.06542968750000,stop
443.53,3,0,3,0,1.9200,-0.7200,-0.2800,-0.8750,-2.1250,2.6875,0.69641113281250,0.16235351562500,0.69592285156250,0.06561279296875,stop
443.54,3,0,3,0,2.0600,-0.7800,-0.1300,0.8125,-5.2500,2.6250,0.69671630859375,0.16259765625000,0.69561767578125,0.06567382812500,stop
443.55,3,0,3,0,2.3600,-0.8300,-0.0700,0.2500,-4.5000,2.6250,0.69696044921875,0.16278076171875,0.69531250000000,0.06573486328125,stop
443.56,3,0,3,0,2.5100,-0.8100,-0.1300,-0.2500,-4.0000,2.6250,0.69720458984375,0.16296386718750,0.69500732421875,0.06585693359375,stop
443.57,3,0,3,0,2.6500,-0.7800,-0.2300,-1.3125,-2.7500,2.6250,0.69738769531250,0.16302490234375,0.69476318359375,0.06604003906250,stop
443.58,3,0,3,0,2.7600,-0.7600,-0.3400,-2.1875,-1.0625,2.6250,0.69744873046875,0.16308593750000,0.69470214843750,0.06634521484375,stop
443.59,3,0,3,0,2.7900,-0.7800,-0.5200,-2.7500,0.4375,2.6875,0.69744873046875,0.16308593750000,0.69464111328125,0.06665039062500,stop
443.60,3,0,3,0,2.7100,-0.7600,-0.6800,-2.5625,1.4375,2.9375,0.69738769531250,0.16308593750000,0.69464111328125,0.06701660156250,stop
443.61,3,0,3,0,2.6200,-0.7200,-0.8000,-2.1875,2.8750,3.3125,0.69720458984375,0.16314697265625,0.69476318359375,0.06738281250000,stop
443.62,3,0,3,0,2.4600,-0.8900,-0.9400,-1.4375,4.0625,4.2500,0.69696044921875,0.16326904296875,0.69494628906250,0.06781005859375,stop
443.63,3,0,3,0,2.5200,-0.9800,-0.8700,-1.1875,6.6875,5.4375,0.69653320312500,0.16351318359375,0.69531250000000,0.06829833984375,stop
443.64,3,0,3,0,2.5600,-1.0300,-0.8300,-1.8125,9.3750,6.1250,0.69598388671875,0.16369628906250,0.69580078125000,0.06890869140625,stop
443.65,3,0,3,0,2.6200,-1.0300,-0.6800,-2.8125,10.6250,6.6875,0.69531250000000,0.16387939453125,0.69628906250000,0.06964111328125,stop
443.66,3,0,3,0,2.5300,-0.9800,-0.5700,-3.1250,10.6875,6.5000,0.69464111328125,0.16400146484375,0.69683837890625,0.07037353515625,stop
443.67,3,0,3,0,2.5300,-0.9700,-0.5600,-3.1875,10.0625,5.3750,0.69403076171875,0.16406250000000,0.69738769531250,0.07104492187500,stop
443.68,3,0,3,0,2.5300,-0.9900,-0.6400,-4.5000,10.0000,3.3750,0.69348144531250,0.16394042968750,0.69793701171875,0.07165527343750,stop
443.69,3,0,3,0,2.5000,-0.8500,-0.7200,-6.8750,9.4375,0.5000,0.69299316406250,0.16345214843750,0.69842529296875,0.07220458984375,stop
443.70,3,0,3,0,2.5000,-0.8500,-0.7200,-6.8750,9.4375,0.5000,0.69299316406250,0.16345214843750,0.69842529296875,0.07220458984375,stop
443.70,3,0,3,0,1.4600,0.1300,-0.7800,-7.8750,7.3750,-2.8125,0.69268798828125,0.16278076171875,0.69891357421875,0.07263183593750,stop
443.71,3,0,3,0,0.0000,0.8600,-0.7300,-5.4375,1.9375,-6.0000,0.69262695312500,0.16204833984375,0.69909667968750,0.07263183593750,stop
443.72,3,0,3,0,-2.0500,1.6400,-0.8300,-0.6250,-6.6250,-9.4375,0.69311523437500,0.16143798828125,0.69879150390625,0.07202148437500,stop
443.73,3,0,3,0,-6.6800,3.3500,-0.5800,5.5000,-15.1875,-12.0000,0.69403076171875,0.16119384765625,0.69812011718750,0.07067871093750,stop
443.74,3,0,3,0,-9.5800,4.2700,-0.5900,9.4375,-22.7500,-12.9375,0.69537353515625,0.16107177734375,0.69696044921875,0.06903076171875,stop
443.75,3,0,3,0,-12.2000,4.0500,-0.5400,11.5000,-24.6875,-11.3750,0.69677734375000,0.16125488281250,0.69573974609375,0.06726074218750,stop
443.76,3,0,3,0,-12.4300,1.7400,0.5600,16.0625,-17.6875,-5.1250,0.69763183593750,0.16204833984375,0.69482421875000,0.06573486328125,stop
443.77,3,0,3,0,-5.6200,-0.0100,1.4300,16.9375,-2.3125,12.0000,0.69744873046875,0.16381835937500,0.69458007812500,0.06542968750000,stop
443.78,3,0,3,0,-3.3100,-0.7200,0.4100,8.1250,25.3750,16.6875,0.69567871093750,0.16516113281250,0.69598388671875,0.06628417968750,stop
443.79,3,0,3,0,-1.6800,-0.5900,-0.6100,-13.0000,40.1875,12.4375,0.69335937500000,0.16491699218750,0.69812011718750,0.06842041015625,stop
443.80,3,0,3,0,-0.5200,-0.4500,-1.0700,-29.4375,39.1250,7.0625,0.69134521484375,0.16326904296875,0.70025634765625,0.07116699218750,stop
443.81,3,0,3,0,2.0300,-0.5500,-1.3500,-30.8125,37.5625,1.6875,0.68945312500000,0.16131591796875,0.70227050781250,0.07373046875000,stop
443.83,3,0,3,0,3.8400,-1.0000,-0.5200,-18.9375,19.0625,0.3125,0.68695068359375,0.15826416015625,0.70507812500000,0.07714843750000,stop
443.83,3,0,3,0,3.8400,-1.0000,-0.5200,-18.9375,19.0625,0.3125,0.68695068359375,0.15826416015625,0.70507812500000,0.07714843750000,stop
443.84,3,0,3,0,5.2900,-1.3100,0.0400,-13.1250,11.3750,3.1250,0.68634033203125,0.15759277343750,0.70562744140625,0.07830810546875,stop
443.85,3,0,3,0,5.8600,-1.4800,0.1100,-9.3125,8.9375,6.1250,0.68591308593750,0.15734863281250,0.70605468750000,0.07940673828125,stop
443.86,3,0,3,0,6.3200,-1.6100,0.0800,-7.0625,5.9375,10.0000,0.68554687500000,0.15753173828125,0.70623779296875,0.08050537109375,stop
443.87,3,0,3,0,6.5200,-1.8100,0.0800,-8.5625,7.5000,14.5625,0.68505859375000,0.15783691406250,0.70642089843750,0.08197021484375,stop
443.88,3,0,3,0,6.9100,-1.4200,-0.2100,-9.6250,9.1875,19.6250,0.68450927734375,0.15838623046875,0.70660400390625,0.08386230468750,stop
443.89,3,0,3,0,6.9700,-1.2800,-0.2700,-8.8750,11.4375,21.6875,0.68371582031250,0.15911865234375,0.70697021484375,0.08587646484375,stop
443.90,3,0,3,0,6.9100,-1.2700,-0.1300,-7.8750,13.3750,17.3125,0.68286132812500,0.15960693359375,0.70745849609375,0.08758544921875,stop
443.91,3,0,3,0,5.7100,-1.9000,0.1700,-5.8125,11.2500,7.1250,0.68218994140625,0.15960693359375,0.70800781250000,0.08856201171875,stop
443.92,3,0,3,0,5.3000,-1.6400,0.2500,-0.7500,2.0625,0.8125,0.68206787109375,0.15960693359375,0.70812988281250,0.08868408203125,stop
443.93,3,0,3,0,4.7800,-1.4000,0.2100,2.5000,-5.2500,1.0000,0.68237304687500,0.15985107421875,0.70782470703125,0.08850097656250,stop
443.94,3,0,3,0,3.9900,-1.1500,0.1300,0.3750,-6.3125,0.1250,0.68273925781250,0.15991210937500,0.70745849609375,0.08837890625000,stop
443.95,3,0,3,0,0.8700,-0.2500,-0.5800,-1.3125,-1.3125,-1.5625,0.68280029296875,0.15979003906250,0.70739746093750,0.08837890625000,stop
443.96,3,0,3,0,-1.6900,0.6500,-1.2000,1.3750,-3.3750,-6.1875,0.68304443359375,0.15948486328125,0.70727539062500,0.08789062500000,stop
443.97,3,0,3,0,-1.6900,0.6500,-1.2000,1.3750,-3.3750,-6.1875,0.68304443359375,0.15948486328125,0.70727539062500,0.08789062500000,stop
443.97,3,0,3,0,-5.4100,1.8800,-2.2800,6.1875,-8.3750,-18.9375,0.68365478515625,0.15875244140625,0.70709228515625,0.08624267578125,stop
443.98,3,0,3,0,-10.2100,3.5500,-2.7800,17.3125,-21.8125,-44.1875,0.68505859375000,0.15722656250000,0.70654296875000,0.08221435546875,stop
443.99,3,0,3,0,-20.7500,2.7800,-0.5100,31.1250,-59.3750,-71.5000,0.68878173828125,0.15509033203125,0.70422363281250,0.07519531250000,stop
444.00,3,0,3,0,-19.7300,-0.0700,2.9200,34.2500,-86.2500,-66.8125,0.69396972656250,0.15362548828125,0.70013427734375,0.06793212890625,stop
444.01,3,0,3,0,-10.5600,1.2200,5.3400,44.0625,-79.0000,-14.3125,0.69830322265625,0.15588378906250,0.69580078125000,0.06329345703125,stop
444.02,3,0,3,0,-2.5700,0.6000,4.1200,40.6250,-26.3125,29.3125,0.69915771484375,0.16027832031250,0.69396972656250,0.06225585937500,stop
444.03,3,0,3,0,-2.8100,0.4000,1.4700,20.8750,24.0000,25.3750,0.69726562500000,0.16296386718750,0.69525146484375,0.06286621093750,stop
444.04,3,0,3,0,-0.9500,0.4700,0.3000,-6.8750,69.1875,12.0000,0.69305419921875,0.16284179687500,0.69921875000000,0.06500244140625,stop
444.05,3,0,3,0,1.0500,0.0500,-0.4600,-27.1875,81.0625,6.4375,0.68847656250000,0.16113281250000,0.70385742187500,0.06817626953125,moving
444.06,3,0,3,0,3.7700,-0.8600,-0.4900,-35.1250,64.6250,3.9375,0.68493652343750,0.15887451171875,0.70745849609375,0.07147216796875,moving
444.07,3,0,3,0,4.6000,-1.4200,0.0000,-33.8750,28.6875,4.3750,0.68359375000000,0.15692138671875,0.70892333984375,0.07421875000000,moving
444.08,3,0,3,0,5.4700,-1.6600,0.1600,-29.7500,2.8125,9.3125,0.68377685546875,0.15570068359375,0.70874023437500,0.07666015625000,moving
444.09,3,0,3,0,6.3700,-1.9300,-0.4100,-26.1875,-1.3125,19.8125,0.68408203125000,0.15539550781250,0.70825195312500,0.07940673828125,moving
444.10,3,0,3,0,7.1100,-1.7700,-0.2200,-21.7500,-5.3125,24.2500,0.68450927734375,0.15557861328125,0.70745849609375,0.08215332031250,moving
444.11,3,0,3,0,7.0600,-1.8800,-0.5200,-33.4375,-0.6875,20.8125,0.68487548828125,0.15490722656250,0.70684814453125,0.08544921875000,moving
444.13,3,0,3,0,7.6600,-0.5300,-1.6000,-30.9375,16.5625,23.1875,0.68383789062500,0.15344238281250,0.70727539062500,0.09265136718750,moving
444.14,3,0,3,0,6.9100,-0.7400,-2.1000,-25.6875,24.5625,16.5000,0.68249511718750,0.15270996093750,0.70831298828125,0.09552001953125,moving
444.15,3,0,3,0,6.0200,-1.4700,-2.0800,-23.3125,30.9375,4.9375,0.68084716796875,0.15136718750000,0.70989990234375,0.09765625000000,moving
444.16,3,0,3,0,5.3400,-1.5800,-2.1100,-13.0000,25.8125,1.3750,0.67938232421875,0.15045166015625,0.71130371093750,0.09887695312500,moving
444.17,3,0,3,0,4.1000,-1.4900,-0.9800,7.8125,5.6250,5.7500,0.67889404296875,0.15124511718750,0.71166992187500,0.09881591796875,moving
444.18,3,0,3,0,2.6700,-1.2100,-0.5300,25.5625,-14.6875,5.8125,0.67938232421875,0.15325927734375,0.71093750000000,0.09741210937500,moving
444.19,3,0,3,0,0.6700,-0.5100,-0.5100,35.0625,-24.6875,2.6875,0.68041992187500,0.15570068359375,0.70977783203125,0.09503173828125,moving
444.20,3,0,3,0,-2.3900,0.9100,-0.8000,43.7500,-30.0625,-3.3125,0.68170166015625,0.15832519531250,0.70837402343750,0.09173583984375,moving
444.21,3,0,3,0,-11.6100,3.5500,-1.0400,53.9375,-35.3125,-17.4375,0.68328857421875,0.16076660156250,0.70697021484375,0.08685302734375,moving
444.22,3,0,3,0,-17.2700,4.6100,-0.2800,70.5000,-57.0625,-38.6250,0.68603515625000,0.16302490234375,0.70458984375000,0.07940673828125,moving
444.22,3,0,3,0,-17.2700,4.6100,-0.2800,70.5000,-57.0625,-38.6250,0.68603515625000,0.16302490234375,0.70458984375000,0.07940673828125,moving
444.23,3,0,3,0,-20.7000,3.6300,2.5000,81.3750,-92.8750,-46.1250,0.69085693359375,0.16564941406250,0.70025634765625,0.07031250000000,moving
444.24,3,0,3,0,-8.1300,2.1500,7.3300,72.1250,-101.8125,-27.0625,0.69616699218750,0.16894531250000,0.69488525390625,0.06274414062500,moving
444.25,3,0,3,0,-3.4200,0.9000,4.9200,38.9375,-49.3125,8.5000,0.69854736328125,0.17211914062500,0.69195556640625,0.06018066406250,moving
444.26,3,0,3,0,-3.0900,0.9500,2.0700,-8.5000,13.3750,12.5000,0.69775390625000,0.17224121093750,0.69256591796875,0.06164550781250,moving
444.27,3,0,3,0,-1.9600,1.1200,0.2200,-28.7500,47.5000,6.6250,0.69531250000000,0.17065429687500,0.69519042968750,0.06451416015625,moving
444.28,3,0,3,0,1.6800,-0.0700,-1.2700,-37.5625,63.5625,4.0000,0.69195556640625,0.16827392578125,0.69873046875000,0.06799316406250,moving
444.29,3,0,3,0,2.9700,-1.2200,-0.9100,-41.0625,55.7500,-0.6875,0.68914794921875,0.16540527343750,0.70190429687500,0.07128906250000,moving
444.30,3,0,3,0,3.9100,-1.7800,-0.3600,-34.5625,20.6875,-5.5000,0.68841552734375,0.16284179687500,0.70300292968750,0.07336425781250,moving
444.31,3,0,3,0,4.4200,-1.9200,-0.0800,-27.1250,-10.6875,-3.8125,0.68951416015625,0.16101074218750,0.70220947265625,0.07458496093750,moving
444.32,3,0,3,0,5.7600,-1.9700,-0.0400,-26.6250,-20.5000,0.0000,0.69110107421875,0.15954589843750,0.70080566406250,0.07592773437500,moving
444.33,3,0,3,0,6.3000,-1.9200,-0.1800,-30.6250,-12.6250,3.0000,0.69226074218750,0.15795898437500,0.69982910156250,0.07781982421875,moving
444.34,3,0,3,0,6.9200,-1.9400,-1.0800,-34.1250,1.1250,4.8750,0.69262695312500,0.15618896484375,0.69958496093750,0.08020019531250,moving
444.35,3,0,3,0,7.3200,-1.2400,-1.4300,-33.5000,16.0000,6.3125,0.69207763671875,0.15441894531250,0.70019531250000,0.08288574218750,moving
444.36,3,0,3,0,6.9700,-1.0500,-1.8400,-34.4375,30.1875,2.4375,0.69067382812500,0.15228271484375,0.70178222656250,0.08551025390625,moving
444.37,3,0,3,0,6.7700,-1.5000,-2.1800,-30.1250,30.8750,-4.2500,0.68920898437500,0.14996337890625,0.70343017578125,0.08752441406250,moving
444.38,3,0,3,0,6.1600,-1.4400,-2.5600,-20.9375,26.6875,-5.5000,0.68786621093750,0.14819335937500,0.70495605468750,0.08880615234375,moving
444.39,3,0,3,0,5.3800,-1.2700,-1.6700,-7.8125,15.8125,-1.3750,0.68701171875000,0.14752197265625,0.70587158203125,0.08941650390625,moving
444.40,3,0,3,0,4.8800,-1.4500,-1.0200,9.5000,0.9375,1.0625,0.68682861328125,0.14813232421875,0.70599365234375,0.08886718750000,moving
444.41,3,0,3,0,3.9600,-1.3300,-0.5200,25.0625,-9.8750,2.5625,0.68707275390625,0.14984130859375,0.70556640625000,0.08734130859375,moving
444.42,3,0,3,0,0.5000,-0.4900,-0.4000,34.1250,-12.6875,3.8125,0.68737792968750,0.15222167968750,0.70501708984375,0.08532714843750,moving
444.43,3,0,3,0,-2.3000,0.2400,-0.7600,39.3750,-10.8125,2.9375,0.68743896484375,0.15484619140625,0.70465087890625,0.08294677734375,moving
444.44,3,0,3,0,-6.1400,1.3400,-1.2100,48.9375,-12.3750,-2.1250,0.68756103515625,0.15777587890625,0.70428466796875,0.07965087890625,moving
444.45,3,0,3,0,-10.4800,2.5000,-1.3800,64.7500,-31.5000,-15.3750,0.68865966796875,0.16094970703125,0.70306396484375,0.07427978515625,moving
444.46,3,0,3,0,-18.5800,4.2500,1.5000,75.3750,-59.3125,-26.5000,0.69140625000000,0.16418457031250,0.70031738281250,0.06726074218750,moving
444.47,3,0,3,0,-16.1100,2.3300,4.8200,53.3125,-78.3125,-0.2500,0.69537353515625,0.16784667968750,0.69592285156250,0.06286621093750,moving
444.47,3,0,3,0,-16.1100,2.3300,4.8200,53.3125,-78.3125,-0.2500,0.69537353515625,0.16784667968750,0.69592285156250,0.06286621093750,moving
444.48,3,0,3,0,-9.4400,2.3300,7.1200,53.3125,-78.3125,-0.2500,0.69934082031250,0.17150878906250,0.69140625000000,0.05847167968750,moving
444.49,3,0,3,0,-4.1100,1.3000,5.3600,23.2500,-24.6875,13.8125,0.70043945312500,0.17388916015625,0.68981933593750,0.05749511718750,moving
444.50,3,0,3,0,-1.9500,0.3400,0.1000,-8.7500,28.0625,12.5000,0.69879150390625,0.17395019531250,0.69134521484375,0.05920410156250,moving
444.51,3,0,3,0,-0.3800,0.4900,-1.3100,-25.6250,51.7500,6.0625,0.69604492187500,0.17248535156250,0.69421386718750,0.06195068359375,moving
444.52,3,0,3,0,1.1000,-0.3200,-1.5800,-33.3750,26.5000,-2.5625,0.69494628906250,0.17016601562500,0.69567871093750,0.06420898437500,moving
444.53,3,0,3,0,3.6700,-1.3300,-0.5000,-33.3750,26.5000,-2.5625,0.69384765625000,0.16784667968750,0.69714355468750,0.06646728515625,moving
444.54,3,0,3,0,4.3900,-1.3900,-0.2800,-28.7500,-2.0000,-2.5000,0.69439697265625,0.16595458984375,0.69689941406250,0.06799316406250,moving
444.55,3,0,3,0,5.3700,-1.7400,-0.6900,-24.3125,-10.7500,-0.6250,0.69537353515625,0.16448974609375,0.69610595703125,0.06927490234375,moving
444.56,3,0,3,0,6.1900,-1.5800,-0.3800,-20.7500,-1.6250,3.1875,0.69580078125000,0.16339111328125,0.69586181640625,0.07073974609375,moving
444.57,3,0,3,0,6.6500,-2.0700,-0.8500,-44.2500,14.5625,8.1875,0.69543457031250,0.16113281250000,0.69635009765625,0.07409667968750,moving
444.58,3,0,3,0,7.1900,-1.5400,-0.5900,-37.0000,19.1875,14.1875,0.69470214843750,0.15960693359375,0.69708251953125,0.07745361328125,moving
444.59,3,0,3,0,7.3500,-1.3400,-1.2000,-30.1250,24.6250,12.7500,0.69354248046875,0.15838623046875,0.69818115234375,0.08044433593750,moving
444.60,3,0,3,0,7.2800,-0.9400,-1.5300,-24.6250,24.6250,5.2500,0.69232177734375,0.15704345703125,0.69940185546875,0.08258056640625,moving
444.61,3,0,3,0,6.5200,-1.6100,-2.2200,-18.6875,23.2500,-1.0000,0.69116210937500,0.15570068359375,0.70068359375000,0.08398437500000,moving
444.62,3,0,3,0,6.2000,-1.6600,-2.2300,-8.3750,14.1875,0.6250,0.69042968750000,0.15509033203125,0.70147705078125,0.08471679687500,moving
444.63,3,0,3,0,5.7900,-1.4800,-1.8800,4.4375,0.8125,1.9375,0.69030761718750,0.15551757812500,0.70153808593750,0.08459472656250,moving
444.64,3,0,3,0,4.1100,-1.1300,-0.7800,16.1875,-6.4375,1.8750,0.69042968750000,0.15661621093750,0.70129394531250,0.08361816406250,moving
444.65,3,0,3,0,2.5200,-0.6800,-0.4900,27.7500,-9.2500,1.5000,0.69061279296875,0.15844726562500,0.70086669921875,0.08184814453125,moving
444.66,3,0,3,0,0.2500,-0.0800,-0.5400,41.4375,-12.4375,-1.3125,0.69079589843750,0.16094970703125,0.70043945312500,0.07910156250000,moving
444.67,3,0,3,0,-2.9600,0.8300,-0.4500,59.7500,-28.7500,-10.3750,0.69177246093750,0.16412353515625,0.69927978515625,0.07440185546875,moving
444.68,3,0,3,0,-12.0900,2.9800,-0.4600,70.7500,-58.2500,-19.1875,0.69439697265625,0.16760253906250,0.69647216796875,0.06805419921875,moving
444.69,3,0,3,0,-16.1900,3.7900,0.7700,59.3750,-79.3125,-19.8125,0.69842529296875,0.17047119140625,0.69232177734375,0.06207275390625,moving
444.70,3,0,3,0,-17.6200,2.6200,3.3800,37.2500,-66.0625,-10.6875,0.70190429687500,0.17242431640625,0.68865966796875,0.05822753906250,moving
444.71,3,0,3,0,-15.0900,0.7200,5.2500,21.2500,-23.8750,1.8125,0.70300292968750,0.17395019531250,0.68725585937500,0.05670166015625,moving
444.72,3,0,3,0,-4.1000,1.6300,2.7600,-10.0625,17.3750,7.5000,0.70202636718750,0.17370605468750,0.68817138671875,0.05798339843750,moving
444.73,3,0,3,0,-2.8600,0.8600,0.3600,-26.8750,40.4375,5.0000,0.70001220703125,0.17218017578125,0.69042968750000,0.06054687500000,moving
444.74,3,0,3,0,-2.8600,0.8600,0.3600,-26.8750,40.4375,5.0000,0.70001220703125,0.17218017578125,0.69042968750000,0.06054687500000,moving
444.74,3,0,3,0,-1.6100,1.0200,-0.9500,-25.6250,45.1250,2.1875,0.69763183593750,0.17047119140625,0.69299316406250,0.06286621093750,moving
444.75,3,0,3,0,0.9100,-0.2200,-1.3700,-25.5000,35.8125,-2.1875,0.69586181640625,0.16857910156250,0.69506835937500,0.06481933593750,moving
444.76,3,0,3,0,2.0000,-1.0100,-0.9400,-20.8125,11.4375,-4.3125,0.69549560546875,0.16699218750000,0.69573974609375,0.06597900390625,moving
444.77,3,0,3,0,3.1100,-1.3100,-0.4700,-14.3125,-7.8750,-3.1875,0.69622802734375,0.16595458984375,0.69519042968750,0.06652832031250,moving
444.78,3,0,3,0,4.1200,-1.3800,-0.2300,-17.0000,-11.4375,-0.8125,0.69714355468750,0.16491699218750,0.69445800781250,0.06732177734375,moving
444.79,3,0,3,0,5.6200,-1.4900,-0.1300,-24.1875,-7.8125,1.6250,0.69793701171875,0.16357421875000,0.69378662109375,0.06878662109375,moving
444.80,3,0,3,0,6.2300,-1.5200,-0.1700,-28.7500,1.3125,5.4375,0.69824218750000,0.16217041015625,0.69360351562500,0.07086181640625,moving
444.81,3,0,3,0,6.7800,-1.5700,-0.6600,-32.1875,16.1250,10.0000,0.69763183593750,0.16070556640625,0.69427490234375,0.07366943359375,moving
444.82,3,0,3,0,7.3400,-1.1000,-1.2400,-33.8125,28.3750,12.1875,0.69635009765625,0.15917968750000,0.69561767578125,0.07684326171875,moving
444.83,3,0,3,0,7.1600,-0.9200,-1.8200,-31.5625,35.6250,8.9375,0.69451904296875,0.15759277343750,0.69744873046875,0.07977294921875,moving
444.84,3,0,3,0,6.9200,-0.8300,-1.8600,-20.9375,30.1875,2.8750,0.69293212890625,0.15625000000000,0.69909667968750,0.08166503906250,moving
444.85,3,0,3,0,6.2300,-1.4800,-2.0800,-5.3750,17.8125,1.3125,0.69189453125000,0.15588378906250,0.70013427734375,0.08227539062500,moving
444.86,3,0,3,0,5.3500,-1.4800,-1.3100,8.5625,3.3750,4.1875,0.69152832031250,0.15661621093750,0.70031738281250,0.08209228515625,moving
444.87,3,0,3,0,4.8600,-1.5600,-0.6800,18.0000,-4.7500,5.6250,0.69152832031250,0.15814208984375,0.70013427734375,0.08123779296875,moving
444.88,3,0,3,0,4.3200,-1.6400,-0.1500,24.7500,-6.1875,7.2500,0.69152832031250,0.16009521484375,0.69982910156250,0.08007812500000,moving
444.89,3,0,3,0,3.6300,-1.6700,0.1800,27.8750,-4.7500,7.5625,0.69134521484375,0.16229248046875,0.69964599609375,0.07879638671875,moving
444.90,3,0,3,0,1.7500,-1.4200,0.3200,26.5000,-3.5625,5.6875,0.69116210937500,0.16424560546875,0.69952392578125,0.07745361328125,moving
444.91,3,0,3,0,0.2000,-0.9100,0.0600,21.1875,2.2500,1.6875,0.69067382812500,0.16558837890625,0.69976806640625,0.07629394531250,moving
444.92,3,0,3,0,-1.9600,-0.1900,-0.4900,22.1875,4.5000,-5.3125,0.69012451171875,0.16656494140625,0.70025634765625,0.07464599609375,moving
444.93,3,0,3,0,-8.4900,2.1400,-1.6800,37.8750,-8.8125,-16.1250,0.69018554687500,0.16796875000000,0.70025634765625,0.07122802734375,moving
444.94,3,0,3,0,-12.4400,3.6100,-1.6600,56.3125,-34.0625,-22.5000,0.69158935546875,0.17016601562500,0.69885253906250,0.06591796875000,moving
444.95,3,0,3,0,-16.6200,4.7200,-0.8800,57.1875,-44.2500,-15.3125,0.69348144531250,0.17291259765625,0.69677734375000,0.06085205078125,moving
444.96,3,0,3,0,-17.7100,4.1600,1.7200,49.6250,-39.8750,3.1250,0.69512939453125,0.17633056640625,0.69458007812500,0.05743408203125,moving
444.97,3,0,3,0,-6.7500,2.4400,5.6500,28.9375,-13.9375,13.0625,0.69543457031250,0.17895507812500,0.69366455078125,0.05621337890625,moving
444.98,3,0,3,0,-4.5200,1.4300,3.8200,-9.7500,11.8750,9.5625,0.69482421875000,0.17889404296875,0.69415283203125,0.05761718750000,moving
444.99,3,0,3,0,-3.6500,1.0800,1.1300,-33.0000,25.1875,2.6250,0.69378662109375,0.17687988281250,0.69549560546875,0.06011962890625,moving
445.00,3,0,3,0,-3.6500,1.0800,1.1300,-33.0000,25.1875,2.6250,0.69378662109375,0.17687988281250,0.69549560546875,0.06011962890625,moving
445.00,3,0,3,0,-2.2700,0.7700,-0.2900,-41.1875,24.1250,-0.5625,0.69299316406250,0.17425537109375,0.69677734375000,0.06298828125000,moving
445.01,3,0,3,0,0.3600,-0.2900,-0.8500,-42.1875,16.5625,-2.6250,0.69262695312500,0.17144775390625,0.69757080078125,0.06561279296875,moving
445.02,3,0,3,0,1.6900,-0.8100,-0.6400,-37.5000,5.7500,-2.6250,0.69281005859375,0.16894531250000,0.69775390625000,0.06781005859375,moving
445.03,3,0,3,0,2.8500,-1.1000,-0.6800,-33.3750,2.5000,-0.6875,0.69317626953125,0.16687011718750,0.69769287109375,0.06982421875000,moving
445.04,3,0,3,0,4.8400,-1.7400,-1.1700,-27.0625,6.9375,2.5625,0.69311523437500,0.16534423828125,0.69793701171875,0.07177734375000,moving
445.05,3,0,3,0,6.0800,-2.1000,-0.8700,-20.8125,4.1250,2.5625,0.69317626953125,0.16418457031250,0.69799804687500,0.07324218750000,moving
445.06,3,0,3,0,6.3900,-2.4500,-0.3100,-35.6250,1.9375,1.9375,0.69354248046875,0.16217041015625,0.69787597656250,0.07556152343750,moving
445.07,3,0,3,0,6.2600,-2.3100,-0.8300,-37.6250,7.0625,8.3750,0.69354248046875,0.16033935546875,0.69793701171875,0.07843017578125,moving
445.08,3,0,3,0,6.8800,-1.3700,-1.1700,-24.5000,8.9375,12.2500,0.69323730468750,0.15954589843750,0.69812011718750,0.08081054687500,moving
445.09,3,0,3,0,6.9800,-1.2500,-1.3400,-16.4375,8.0625,10.3750,0.69293212890625,0.15911865234375,0.69836425781250,0.08251953125000,moving
445.10,3,0,3,0,7.0700,-1.2700,-1.3100,-10.6250,9.0000,7.0625,0.69244384765625,0.15881347656250,0.69873046875000,0.08374023437500,moving
445.11,3,0,3,0,6.8100,-1.4100,-1.2900,-3.3750,10.7500,2.7500,0.69183349609375,0.15869140625000,0.69934082031250,0.08422851562500,moving
445.12,3,0,3,0,5.6700,-1.6100,-1.1900,3.1250,8.7500,2.6250,0.69122314453125,0.15899658203125,0.69989013671875,0.08435058593750,moving
445.13,3,0,3,0,5.1200,-1.5800,-0.9000,9.7500,1.3125,3.3750,0.69097900390625,0.15979003906250,0.70001220703125,0.08398437500000,moving
445.14,3,0,3,0,4.5600,-1.4700,-0.4900,16.7500,-6.6250,3.6875,0.69110107421875,0.16107177734375,0.69964599609375,0.08306884765625,moving
445.15,3,0,3,0,2.9700,-1.1700,0.0800,21.6250,-10.5000,2.6875,0.69140625000000,0.16265869140625,0.69915771484375,0.08172607421875,moving
445.16,3,0,3,0,1.9600,-0.7600,0.2300,23.6250,-9.7500,0.3125,0.69165039062500,0.16412353515625,0.69873046875000,0.08013916015625,moving
445.17,3,0,3,0,0.5200,-0.0900,0.1100,24.8750,-5.3125,-3.9375,0.69165039062500,0.16540527343750,0.69866943359375,0.07830810546875,moving
445.18,3,0,3,0,-1.5800,0.8300,-0.1600,27.2500,-1.8125,-11.5000,0.69140625000000,0.16638183593750,0.69891357421875,0.07592773437500,moving
445.19,3,0,3,0,-8.6400,2.7000,-1.3800,39.8125,-15.4375,-23.0625,0.69189453125000,0.16748046875000,0.69860839843750,0.07189941406250,moving
445.20,3,0,3,0,-12.6100,3.4100,-1.0800,54.0000,-47.1250,-26.4375,0.69415283203125,0.16943359375000,0.69647216796875,0.06628417968750,moving
445.21,3,0,3,0,-15.8300,3.7900,-0.1600,45.4375,-58.7500,-15.4375,0.69708251953125,0.17156982421875,0.69342041015625,0.06176757812500,moving
445.22,3,0,3,0,-12.2600,1.6800,3.7500,32.5625,-35.3750,-0.6250,0.69873046875000,0.17370605468750,0.69140625000000,0.05920410156250,moving
445.23,3,0,3,0,-6.5000,1.4700,3.9800,13.4375,8.8125,8.1875,0.69793701171875,0.17498779296875,0.69195556640625,0.05902099609375,moving
445.24,3,0,3,0,-4.3500,1.4000,1.8500,-19.3750,35.6875,7.3125,0.69604492187500,0.17401123046875,0.69390869140625,0.06115722656250,moving
445.25,3,0,3,0,-2.9100,1.0700,0.2800,-34.1875,36.3125,2.4375,0.69433593750000,0.17193603515625,0.69586181640625,0.06390380859375,moving
445.25,3,0,3,0,-2.9100,1.0700,0.2800,-34.1875,36.3125,2.4375,0.69433593750000,0.17193603515625,0.69586181640625,0.06390380859375,moving
445.26,3,0,3,0,0.3500,0.4200,-1.1500,-37.6250,34.2500,-1.8750,0.69281005859375,0.16931152343750,0.69775390625000,0.06658935546875,moving
445.27,3,0,3,0,1.5800,-0.3600,-1.1100,-34.3125,19.0625,-5.5000,0.69219970703125,0.16680908203125,0.69879150390625,0.06866455078125,moving
445.28,3,0,3,0,2.7200,-0.8700,-0.7400,-24.8750,-0.3125,-6.0625,0.69256591796875,0.16491699218750,0.69873046875000,0.06976318359375,moving
445.29,3,0,3,0,3.7600,-1.1900,-0.4900,-17.9375,-8.4375,-4.5625,0.69342041015625,0.16357421875000,0.69818115234375,0.07049560546875,moving
445.30,3,0,3,0,5.2400,-1.5500,-0.2700,-16.7500,-8.1250,-2.0625,0.69415283203125,0.16247558593750,0.69763183593750,0.07122802734375,moving
445.31,3,0,3,0,5.9400,-1.7900,-0.2100,-17.1875,-7.4375,1.8750,0.69482421875000,0.16162109375000,0.69702148437500,0.07232666015625,moving
445.32,3,0,3,0,6.4600,-1.9000,-0.0600,-18.5625,-3.8125,6.9375,0.69525146484375,0.16094970703125,0.69659423828125,0.07379150390625,moving
445.33,3,0,3,0,7.2800,-2.0100,-0.6600,-20.5000,5.5000,13.0625,0.69512939453125,0.16046142578125,0.69665527343750,0.07592773437500,moving
445.34,3,0,3,0,7.3100,-1.4200,-0.8100,-19.4375,15.2500,16.6250,0.69433593750000,0.16015625000000,0.69720458984375,0.07830810546875,moving
445.35,3,0,3,0,7.3200,-1.3800,-1.1900,-18.2500,21.9375,13.1875,0.69317626953125,0.15972900390625,0.69824218750000,0.08050537109375,moving
445.36,3,0,3,0,7.3900,-1.3700,-1.1900,-11.3750,18.3125,7.7500,0.69213867187500,0.15936279296875,0.69915771484375,0.08197021484375,moving
445.37,3,0,3,0,6.6900,-1.7100,-1.1900,-0.6875,9.8125,2.0000,0.69152832031250,0.15936279296875,0.69970703125000,0.08221435546875,moving
445.38,3,0,3,0,6.4900,-1.6500,-0.8500,10.1875,-0.5625,2.2500,0.69140625000000,0.16015625000000,0.69970703125000,0.08172607421875,moving
445.39,3,0,3,0,6.0300,-1.7000,-0.5700,16.1250,-7.4375,3.2500,0.69158935546875,0.16137695312500,0.69934082031250,0.08087158203125,moving
445.40,3,0,3,0,5.3300,-1.5800,-0.2000,22.0625,-14.7500,3.3125,0.69213867187500,0.16302490234375,0.69860839843750,0.07952880859375,moving
445.42,3,0,3,0,2.5500,-0.6300,-0.0100,28.2500,-17.9375,2.3750,0.69281005859375,0.16497802734375,0.69769287109375,0.07763671875000,moving
445.42,3,0,3,0,0.0300,0.3000,-0.3900,27.5625,-9.8125,-1.8125,0.69305419921875,0.16662597656250,0.69726562500000,0.07574462890625,moving
445.43,3,0,3,0,-4.0000,1.6900,-1.2600,32.0625,-3.5000,-16.0000,0.69287109375000,0.16760253906250,0.69750976562500,0.07275390625000,moving
445.44,3,0,3,0,-16.2600,5.2100,-2.8200,53.9375,-37.3125,-38.8750,0.69458007812500,0.16876220703125,0.69616699218750,0.06658935546875,moving
445.45,3,0,3,0,-23.3400,6.4400,-1.4500,50.1875,-68.3125,-48.5625,0.69824218750000,0.16925048828125,0.69305419921875,0.05957031250000,moving
445.46,3,0,3,0,-23.7700,1.9900,1.3000,31.9375,-57.8750,-25.2500,0.70135498046875,0.16992187500000,0.69006347656250,0.05523681640625,moving
445.47,3,0,3,0,-15.0900,0.3900,4.3400,37.8125,-17.5625,11.3125,0.70178222656250,0.17303466796875,0.68896484375000,0.05340576171875,moving
445.48,3,0,3,0,-3.2900,1.1800,1.4500,14.6875,38.1875,18.2500,0.69915771484375,0.17486572265625,0.69110107421875,0.05419921875000,moving
445.49,3,0,3,0,-2.4700,1.1100,-0.8400,-24.8750,79.3750,10.5625,0.69470214843750,0.17358398437500,0.69567871093750,0.05755615234375,moving
445.50,3,0,3,0,-0.7600,1.3800,-1.7800,-35.5625,74.8750,3.2500,0.69061279296875,0.17120361328125,0.69995117187500,0.06103515625000,moving
445.50,3,0,3,0,-0.7600,1.3800,-1.7800,-35.5625,74.8750,3.2500,0.69061279296875,0.17120361328125,0.69995117187500,0.06103515625000,moving
445.51,3,0,3,0,0.8200,1.1100,-2.1200,-30.1875,45.6875,-2.8125,0.68829345703125,0.16900634765625,0.70263671875000,0.06335449218750,moving
445.52,3,0,3,0,3.0200,-0.6300,-0.5400,-21.6250,5.9375,-4.5000,0.68829345703125,0.16735839843750,0.70294189453125,0.06451416015625,moving
445.53,3,0,3,0,4.1100,-0.9400,-0.0200,-12.5000,-13.6875,-1.8125,0.68927001953125,0.16656494140625,0.70208740234375,0.06500244140625,moving
445.54,3,0,3,0,5.0800,-1.1500,-0.0300,-11.1250,-8.9375,3.7500,0.68994140625000,0.16619873046875,0.70141601562500,0.06573486328125,moving
445.55,3,0,3,0,6.6400,-1.5400,0.1300,-16.6250,-2.2500,7.8125,0.69030761718750,0.16564941406250,0.70111083984375,0.06719970703125,moving
445.56,3,0,3,0,6.7900,-1.9800,0.3400,-29.3750,1.5625,14.1250,0.69055175781250,0.16473388671875,0.70080566406250,0.06988525390625,moving
445.57,3,0,3,0,7.3800,-2.3700,-0.1700,-33.3125,8.5000,29.3750,0.69030761718750,0.16448974609375,0.70068359375000,0.07379150390625,moving
445.58,3,0,3,0,8.2000,-2.0100,-0.1500,-26.7500,10.0625,44.2500,0.68975830078125,0.16552734375000,0.70050048828125,0.07824707031250,moving
445.59,3,0,3,0,8.5500,-1.1700,-0.8000,-19.5625,10.9375,48.0000,0.68902587890625,0.16717529296875,0.70031738281250,0.08245849609375,moving
445.60,3,0,3,0,8.9100,-0.8300,-0.9300,-11.3125,9.0625,41.5000,0.68829345703125,0.16900634765625,0.70019531250000,0.08581542968750,moving
445.61,3,0,3,0,9.0400,-1.0700,-0.8500,-8.4375,7.1250,20.1875,0.68786621093750,0.16967773437500,0.70025634765625,0.08764648437500,moving
445.62,3,0,3,0,6.9800,-2.5700,-0.5100,-4.2500,0.3750,3.8125,0.68786621093750,0.16967773437500,0.70019531250000,0.08813476562500,moving
445.63,3,0,3,0,6.7100,-2.4600,-0.3200,2.6875,-6.5000,5.9375,0.68817138671875,0.17022705078125,0.69976806640625,0.08825683593750,moving
445.64,3,0,3,0,6.4100,-2.4800,-0.0500,7.8125,-15.6250,7.0625,0.68896484375000,0.17126464843750,0.69879150390625,0.08795166015625,moving
445.65,3,0,3,0,6.0100,-2.6200,0.3200,9.0625,-20.0625,5.1250,0.69000244140625,0.17230224609375,0.69757080078125,0.08740234375000,moving
445.66,3,0,3,0,4.3000,-2.4200,0.2500,5.0000,-17.2500,0.5625,0.69091796875000,0.17272949218750,0.69659423828125,0.08685302734375,moving
445.67,3,0,3,0,3.0300,-1.6700,0.0900,3.5000,-9.9375,-8.6875,0.69152832031250,0.17254638671875,0.69616699218750,0.08599853515625,moving
445.68,3,0,3,0,0.5800,0.5300,-0.7100,10.7500,4.3750,-27.5625,0.69128417968750,0.17144775390625,0.69689941406250,0.08374023437500,moving
445.69,3,0,3,0,-5.2000,3.3100,-2.2600,25.5000,7.0625,-70.1250,0.69097900390625,0.16870117187500,0.69854736328125,0.07806396484375,moving
445.70,3,0,3,0,-26.9600,8.1500,-5.2800,45.3125,-23.1250,-137.0000,0.69256591796875,0.16320800781250,0.69946289062500,0.06671142578125,moving
445.71,3,0,3,0,-29.8600,5.8600,-1.9300,35.2500,-90.0625,-135.3125,0.69830322265625,0.15759277343750,0.69610595703125,0.05505371093750,moving
445.74,3,0,3,0,-0.5900,0.9900,9.7100,76.6875,-56.7500,66.0625,0.70526123046875,0.16815185546875,0.68688964843750,0.05041503906250,moving
445.74,3,0,3,0,0.8600,-0.7900,7.4100,65.2500,19.0625,38.9375,0.70294189453125,0.17443847656250,0.68774414062500,0.04919433593750,moving
445.75,3,0,3,0,-0.1800,-1.5100,4.6900,-9.6875,73.1250,10.6875,0.69866943359375,0.17413330078125,0.69201660156250,0.05151367187500,moving
445.76,3,0,3,0,-0.1800,-1.5100,4.6900,-9.6875,73.1250,10.6875,0.69866943359375,0.17413330078125,0.69201660156250,0.05151367187500,moving
445.76,3,0,3,0,1.4800,-1.3000,2.4100,-33.1875,43.0625,4.9375,0.69653320312500,0.17218017578125,0.69439697265625,0.05450439453125,moving
445.77,3,0,3,0,3.8200,-2.2000,1.0900,-47.8125,11.9375,-0.6875,0.69653320312500,0.16918945312500,0.69494628906250,0.05749511718750,moving
445.78,3,0,3,0,4.4800,-2.2500,0.5100,-57.6250,1.5625,-1.5000,0.69726562500000,0.16558837890625,0.69476318359375,0.06091308593750,moving
445.79,3,0,3,0,4.8800,-2.2700,0.3200,-64.1250,-3.0625,-3.8125,0.69842529296875,0.16143798828125,0.69427490234375,0.06451416015625,moving
445.80,3,0,3,0,4.8200,-1.9600,0.1100,-66.1250,6.6875,-9.1875,0.69897460937500,0.15679931640625,0.69439697265625,0.06805419921875,moving
445.81,3,0,3,0,3.5400,-0.6000,-1.7000,-56.4375,20.5625,-13.4375,0.69860839843750,0.15240478515625,0.69549560546875,0.07092285156250,moving
445.82,3,0,3,0,2.4000,-0.0500,-2.4200,-38.4375,40.5625,-18.2500,0.69677734375000,0.14868164062500,0.69793701171875,0.07269287109375,moving
445.83,3,0,3,0,1.3500,0.6800,-3.5600,-24.9375,37.6250,-16.4375,0.69488525390625,0.14593505859375,0.70031738281250,0.07366943359375,moving
445.84,3,0,3,0,1.5800,1.0400,-2.9500,-14.4375,32.5625,-12.3125,0.69317626953125,0.14410400390625,0.70233154296875,0.07421875000000,moving
445.85,3,0,3,0,1.8900,1.5300,-2.5700,-10.3750,29.4375,-5.4375,0.69152832031250,0.14294433593750,0.70410156250000,0.07489013671875,moving
445.86,3,0,3,0,1.6800,1.2900,-2.2500,1.5625,22.2500,1.6250,0.69012451171875,0.14294433593750,0.70544433593750,0.07519531250000,moving
445.87,3,0,3,0,0.6900,0.6100,-1.3000,32.2500,-9.9375,7.5000,0.69024658203125,0.14544677734375,0.70495605468750,0.07348632812500,moving
445.88,3,0,3,0,-0.5300,-0.8700,0.7500,60.9375,-40.1250,10.4375,0.69189453125000,0.15002441406250,0.70281982421875,0.06988525390625,moving
445.89,3,0,3,0,-0.0600,-1.8600,1.8000,55.1875,-49.6250,7.8125,0.69409179687500,0.15411376953125,0.70001220703125,0.06628417968750,moving
445.90,3,0,3,0,-0.0600,-1.8500,2.0400,29.8750,-39.2500,2.9375,0.69610595703125,0.15631103515625,0.69781494140625,0.06414794921875,moving
445.91,3,0,3,0,-0.0600,-1.5100,1.6300,1.6875,-17.9375,-1.6250,0.69714355468750,0.15643310546875,0.69671630859375,0.06365966796875,moving
445.92,3,0,3,0,-0.2400,0.2400,0.1000,-13.3125,-1.4375,-3.8125,0.69744873046875,0.15539550781250,0.69659423828125,0.06420898437500,moving
445.93,3,0,3,0,0.0600,0.8200,-0.3000,-12.8125,2.6250,-2.3750,0.69744873046875,0.15441894531250,0.69677734375000,0.06488037109375,moving
445.94,3,0,3,0,0.5200,0.8600,-0.7900,-6.3125,12.3125,0.3750,0.69683837890625,0.15399169921875,0.69744873046875,0.06542968750000,moving
445.95,3,0,3,0,0.2800,-0.1800,-1.2300,4.2500,16.5625,2.2500,0.69573974609375,0.15429687500000,0.69848632812500,0.06555175781250,moving
445.96,3,0,3,0,0.0400,-0.4400,-0.4500,12.8125,7.6875,3.7500,0.69506835937500,0.15527343750000,0.69897460937500,0.06506347656250,moving
445.97,3,0,3,0,-0.1000,-0.6500,0.5800,13.3750,-3.1250,2.6875,0.69506835937500,0.15625000000000,0.69879150390625,0.06439208984375,moving
445.98,3,0,3,0,-0.2000,-0.6700,1.1600,10.4375,-6.5625,1.0625,0.69531250000000,0.15698242187500,0.69848632812500,0.06372070312500,moving
445.99,3,0,3,0,-0.2000,-0.6800,0.9400,4.3750,-2.6875,-0.7500,0.69543457031250,0.15722656250000,0.69830322265625,0.06335449218750,moving
446.00,3,0,3,0,-0.1700,-0.6300,0.5200,-0.0625,-0.2500,-2.3125,0.69543457031250,0.15704345703125,0.69836425781250,0.06323242187500,moving
446.01,3,0,3,0,-0.0400,-0.4000,0.2300,-1.8750,-2.9375,-3.5000,0.69567871093750,0.15673828125000,0.69824218750000,0.06304931640625,moving
446.02,3,0,3,0,-0.0400,-0.4000,0.2300,-1.8750,-2.9375,-3.5000,0.69567871093750,0.15673828125000,0.69824218750000,0.06304931640625,moving
446.02,3,0,3,0,0.1000,-0.1100,-0.1500,-4.8125,-3.5000,-4.4375,0.69598388671875,0.15618896484375,0.69805908203125,0.06304931640625,moving
446.03,3,0,3,0,0.1700,-0.0300,-0.3000,-5.3750,-1.6250,-4.5625,0.69616699218750,0.15557861328125,0.69799804687500,0.06304931640625,moving
446.06,3,0,3,0,0.3200,0.1400,-0.7600,-2.0625,-2.3125,-2.9375,0.69641113281250,0.15478515625000,0.69787597656250,0.06292724609375,stop
446.06,3,0,3,0,0.4000,-0.0400,-0.5900,0.5000,-4.5000,-1.8125,0.69671630859375,0.15472412109375,0.69763183593750,0.06274414062500,stop
446.07,3,0,3,0,0.4000,-0.1500,-0.4500,3.5625,-4.5625,-0.6875,0.69696044921875,0.15490722656250,0.69738769531250,0.06243896484375,stop
446.08,3,0,3,0,0.3900,-0.2800,-0.3400,5.6875,-2.6875,-0.1875,0.69702148437500,0.15527343750000,0.69726562500000,0.06201171875000,stop
446.09,3,0,3,0,0.3700,-0.4300,-0.2600,7.0000,-1.8750,-0.1250,0.69702148437500,0.15570068359375,0.69720458984375,0.06158447265625,stop
446.10,3,0,3,0,0.2700,-0.5000,-0.1600,7.8750,-1.4375,0.0000,0.69702148437500,0.15618896484375,0.69714355468750,0.06109619140625,stop
446.11,3,0,3,0,0.3000,-0.5300,-0.1000,8.3750,-1.0000,0.3750,0.69696044921875,0.15667724609375,0.69714355468750,0.06054687500000,stop
446.12,3,0,3,0,0.3700,-0.4700,-0.0900,9.1875,-0.2500,0.4375,0.69683837890625,0.15722656250000,0.69720458984375,0.05999755859375,stop
446.13,3,0,3,0,0.4800,-0.2200,-0.1700,9.0625,0.1250,0.0000,0.69671630859375,0.15777587890625,0.69726562500000,0.05944824218750,stop
446.14,3,0,3,0,0.4500,-0.1400,-0.1800,8.4375,-0.3750,-0.3750,0.69659423828125,0.15832519531250,0.69732666015625,0.05889892578125,stop
446.15,3,0,3,0,0.4500,-0.1000,-0.1100,8.1250,-0.9375,-0.8125,0.69653320312500,0.15875244140625,0.69732666015625,0.05834960937500,stop
446.16,3,0,3,0,0.3500,-0.0600,-0.1600,7.5625,-0.5000,-1.3125,0.69647216796875,0.15911865234375,0.69738769531250,0.05780029296875,stop
446.17,3,0,3,0,0.2500,-0.0700,-0.1800,7.0000,-1.0000,-1.9375,0.69641113281250,0.15942382812500,0.69738769531250,0.05718994140625,stop
446.18,3,0,3,0,0.2100,-0.0800,-0.1500,6.1875,-2.4375,-2.5625,0.69647216796875,0.15966796875000,0.69726562500000,0.05664062500000,stop
446.19,3,0,3,0,0.1700,-0.0900,-0.1700,5.2500,-2.6250,-3.0625,0.69653320312500,0.15979003906250,0.69720458984375,0.05609130859375,stop
446.20,3,0,3,0,0.1200,-0.1100,-0.1700,4.7500,-2.4375,-3.3750,0.69659423828125,0.15991210937500,0.69720458984375,0.05554199218750,stop
446.21,3,0,3,0,0.1200,-0.0800,-0.1900,4.6250,-2.3750,-3.1875,0.69665527343750,0.15997314453125,0.69714355468750,0.05499267578125,stop
446.22,3,0,3,0,0.1000,-0.0800,-0.2100,4.6250,-1.9375,-2.7500,0.69671630859375,0.16009521484375,0.69714355468750,0.05450439453125,stop
446.23,3,0,3,0,0.1400,-0.1200,-0.1400,4.6875,-1.8750,-2.4375,0.69671630859375,0.16021728515625,0.69714355468750,0.05401611328125,stop
446.24,3,0,3,0,0.2100,-0.2100,-0.3000,4.1250,-1.7500,-2.2500,0.69671630859375,0.16033935546875,0.69714355468750,0.05358886718750,stop
446.25,3,0,3,0,0.2600,-0.2500,-0.4000,4.1250,-1.1250,-2.0000,0.69659423828125,0.16046142578125,0.69726562500000,0.05310058593750,stop
446.26,3,0,3,0,0.3000,-0.2500,-0.5200,4.6250,-0.0625,-1.6250,0.69635009765625,0.16064453125000,0.69750976562500,0.05267333984375,stop
446.27,3,0,3,0,0.3200,-0.2600,-0.4600,6.2500,0.0000,-1.4375,0.69628906250000,0.16088867187500,0.69757080078125,0.05218505859375,stop
446.28,3,0,3,0,0.3500,-0.1600,-0.2900,7.8750,0.0625,-0.9375,0.69616699218750,0.16131591796875,0.69763183593750,0.05163574218750,stop
446.29,3,0,3,0,0.3500,-0.1400,-0.2300,8.8750,0.7500,-0.4375,0.69598388671875,0.16186523437500,0.69769287109375,0.05108642578125,stop
446.30,3,0,3,0,0.3700,-0.1000,-0.2300,9.3750,1.3125,-0.0625,0.69567871093750,0.16241455078125,0.69793701171875,0.05053710937500,stop
446.31,3,0,3,0,0.3500,-0.0400,-0.1900,8.9375,1.8750,0.0000,0.69537353515625,0.16296386718750,0.69812011718750,0.04998779296875,stop
446.32,3,0,3,0,0.2600,0.1000,-0.0900,8.0000,1.7500,-0.0625,0.69506835937500,0.16351318359375,0.69836425781250,0.04956054687500,stop
446.33,3,0,3,0,0.2400,0.1500,-0.0100,6.7500,1.2500,-0.5625,0.69488525390625,0.16387939453125,0.69848632812500,0.04913330078125,stop
446.34,3,0,3,0,0.2300,0.1200,0.0500,5.3125,1.1250,-0.8750,0.69470214843750,0.16418457031250,0.69860839843750,0.04882812500000,stop
446.35,3,0,3,0,0.2500,-0.0300,0.0100,4.1875,1.0625,-1.0625,0.69458007812500,0.16436767578125,0.69866943359375,0.04852294921875,stop
446.36,3,0,3,0,0.2700,-0.1100,-0.0900,2.9375,1.5625,-1.2500,0.69445800781250,0.16448974609375,0.69885253906250,0.04827880859375,stop
446.37,3,0,3,0,0.3000,-0.1600,-0.1700,1.7500,1.6250,-1.6250,0.69433593750000,0.16448974609375,0.69897460937500,0.04809570312500,stop
446.40,3,0,3,0,0.3200,-0.2400,-0.1300,1.1875,1.4375,-1.9375,0.69403076171875,0.16436767578125,0.69927978515625,0.04772949218750,stop
446.40,3,0,3,0,0.2000,-0.2800,-0.1600,2.1875,2.1250,-1.8750,0.69384765625000,0.16430664062500,0.69952392578125,0.04742431640625,stop
446.41,3,0,3,0,0.2300,-0.2800,-0.1000,1.5000,1.8750,-2.0625,0.69366455078125,0.16424560546875,0.69970703125000,0.04718017578125,stop
446.42,3,0,3,0,0.2000,-0.2200,0.0100,1.3750,2.0625,-1.6875,0.69354248046875,0.16418457031250,0.69989013671875,0.04699707031250,stop
446.43,3,0,3,0,0.1600,-0.1300,-0.1600,1.5000,3.0625,-1.3750,0.69329833984375,0.16418457031250,0.70013427734375,0.04681396484375,stop
446.44,3,0,3,0,0.1800,-0.1400,-0.2000,2.4375,3.0625,-0.9375,0.69305419921875,0.16424560546875,0.70043945312500,0.04663085937500,stop
446.45,3,0,3,0,0.1400,-0.1000,-0.1900,2.8125,3.0000,-0.4375,0.69274902343750,0.16436767578125,0.70068359375000,0.04644775390625,stop
446.46,3,0,3,0,0.1300,0.0100,0.0000,3.5000,3.0000,-0.1875,0.69250488281250,0.16455078125000,0.70086669921875,0.04626464843750,stop
446.47,3,0,3,0,0.1400,0.0500,0.1000,3.9375,2.6875,0.1250,0.69226074218750,0.16479492187500,0.70104980468750,0.04608154296875,stop
446.48,3,0,3,0,0.1600,0.0600,0.1700,3.8750,1.9375,0.3750,0.69207763671875,0.16503906250000,0.70117187500000,0.04589843750000,stop
446.49,3,0,3,0,0.1600,0.0200,0.1400,3.3125,1.1250,0.5625,0.69195556640625,0.16528320312500,0.70123291015625,0.04571533203125,stop
446.50,3,0,3,0,0.2200,-0.0400,0.1000,2.6250,1.0000,0.5625,0.69189453125000,0.16546630859375,0.70135498046875,0.04559326171875,stop
446.51,3,0,3,0,0.2300,-0.0700,0.0800,1.8750,0.5000,0.5625,0.69183349609375,0.16558837890625,0.70135498046875,0.04553222656250,stop
446.52,3,0,3,0,0.2300,-0.0500,0.0900,1.6250,0.2500,0.5625,0.69183349609375,0.16571044921875,0.70135498046875,0.04547119140625,stop
446.53,3,0,3,0,0.1900,-0.0600,0.1300,1.3750,0.1875,0.5000,0.69183349609375,0.16583251953125,0.70129394531250,0.04534912109375,stop
446.54,3,0,3,0,0.2000,-0.0600,0.1700,0.8750,0.0000,0.4375,0.69183349609375,0.16583251953125,0.70129394531250,0.04528808593750,stop
446.55,3,0,3,0,0.1700,-0.0300,0.2100,-0.0625,0.2500,0.3750,0.69183349609375,0.16583251953125,0.70129394531250,0.04528808593750,stop
446.56,3,0,3,0,0.1700,-0.0500,0.1800,-1.0000,0.5625,0.3125,0.69183349609375,0.16577148437500,0.70129394531250,0.04541015625000,stop
446.57,3,0,3,0,0.2100,-0.1100,0.1200,-1.6875,0.9375,0.4375,0.69183349609375,0.16564941406250,0.70135498046875,0.04547119140625,stop
446.58,3,0,3,0,0.2000,-0.1000,0.0800,-2.3750,0.5625,0.2500,0.69183349609375,0.16552734375000,0.70135498046875,0.04565429687500,stop
446.59,3,0,3,0,0.2100,-0.0800,0.0300,-2.6250,0.1875,0.1875,0.69189453125000,0.16534423828125,0.70135498046875,0.04577636718750,stop
446.60,3,0,3,0,0.2000,-0.1000,0.0100,-2.6250,0.0000,0.0625,0.69195556640625,0.16516113281250,0.70129394531250,0.04595947265625,stop
446.61,3,0,3,0,0.2300,-0.1200,-0.0600,-2.5625,0.1250,0.0000,0.69195556640625,0.16503906250000,0.70129394531250,0.04614257812500,stop
446.62,3,0,3,0,0.2300,-0.1000,-0.0900,-2.1250,0.2500,0.0000,0.69195556640625,0.16485595703125,0.70129394531250,0.04626464843750,stop
446.63,3,0,3,0,0.2100,-0.1000,-0.0900,-1.8750,0.3750,0.1250,0.69201660156250,0.16473388671875,0.70129394531250,0.04632568359375,stop
446.64,3,0,3,0,0.2800,-0.0600,-0.0800,-1.6875,0.2500,0.1250,0.69201660156250,0.16467285156250,0.70129394531250,0.04644775390625,stop
446.65,3,0,3,0,0.2800,-0.0300,-0.0700,-1.5000,0.1250,0.0625,0.69201660156250,0.16455078125000,0.70129394531250,0.04656982421875,stop
446.66,3,0,3,0,0.2900,-0.0300,-0.0400,-1.3750,0.0625,0.1875,0.69201660156250,0.16448974609375,0.70135498046875,0.04663085937500,stop
446.67,3,0,3,0,0.2700,-0.0200,0.0000,-1.5000,0.0000,0.2500,0.69207763671875,0.16436767578125,0.70129394531250,0.04675292968750,stop
446.68,3,0,3,0,0.2400,-0.0100,0.0100,-1.8750,0.0625,0.2500,0.69207763671875,0.16430664062500,0.70129394531250,0.04681396484375,stop
446.69,3,0,3,0,0.2000,-0.0400,-0.0300,-2.4375,0.3750,0.3750,0.69207763671875,0.16412353515625,0.70129394531250,0.04699707031250,stop
446.71,3,0,3,0,0.2400,-0.1300,0.0000,-3.0625,0.5000,0.3125,0.69219970703125,0.16375732421875,0.70129394531250,0.04736328125000,stop
446.72,3,0,3,0,0.2800,-0.1900,-0.0500,-3.3125,0.6875,0.1250,0.69219970703125,0.16357421875000,0.70135498046875,0.04754638671875,stop
446.73,3,0,3,0,0.2900,-0.2000,-0.0800,-2.7500,0.7500,0.1875,0.69213867187500,0.16339111328125,0.70141601562500,0.04772949218750,stop
446.74,3,0,3,0,0.2400,-0.2000,-0.0500,-2.1875,0.5625,0.1250,0.69213867187500,0.16320800781250,0.70141601562500,0.04785156250000,stop
446.75,3,0,3,0,0.2100,-0.2100,0.0300,-1.5625,0.4375,0.2500,0.69213867187500,0.16314697265625,0.70141601562500,0.04791259765625,stop
446.76,3,0,3,0,0.2200,-0.1900,0.0300,-1.5625,0.6875,0.4375,0.69213867187500,0.16302490234375,0.70147705078125,0.04803466796875,stop
446.77,3,0,3,0,0.2100,-0.2000,0.0200,-1.5625,0.7500,0.3125,0.69213867187500,0.16290283203125,0.70153808593750,0.04809570312500,stop
446.78,3,0,3,0,0.2000,-0.1800,0.0100,-1.8125,0.6875,0.1875,0.69207763671875,0.16278076171875,0.70153808593750,0.04821777343750,stop
446.79,3,0,3,0,0.2200,-0.1800,-0.0200,-2.0625,0.7500,0.1875,0.69207763671875,0.16259765625000,0.70159912109375,0.04833984375000,stop
446.80,3,0,3,0,0.2000,-0.1600,-0.0200,-1.8750,0.1875,0.2500,0.69207763671875,0.16247558593750,0.70159912109375,0.04840087890625,stop
446.81,3,0,3,0,0.2000,-0.1400,0.0200,-1.8750,0.1875,0.2500,0.69213867187500,0.16235351562500,0.70159912109375,0.04852294921875,stop
446.82,3,0,3,0,0.1800,-0.1900,0.0300,-1.5625,0.0625,0.2500,0.69213867187500,0.16223144531250,0.70159912109375,0.04858398437500,stop
446.83,3,0,3,0,0.1800,-0.1800,0.0300,-1.5000,0.1250,0.1250,0.69213867187500,0.16210937500000,0.70159912109375,0.04870605468750,stop
446.84,3,0,3,0,0.2200,-0.2300,-0.0300,-1.4375,0.5000,0.0000,0.69219970703125,0.16204833984375,0.70159912109375,0.04876708984375,stop
446.85,3,0,3,0,0.2300,-0.2300,-0.0100,-1.2500,0.6250,0.1250,0.69213867187500,0.16192626953125,0.70166015625000,0.04882812500000,stop
446.86,3,0,3,0,0.2400,-0.2300,-0.1000,-0.9375,0.7500,0.0000,0.69213867187500,0.16180419921875,0.70172119140625,0.04882812500000,stop
446.87,3,0,3,0,0.2600,-0.1800,-0.1000,-0.5625,0.8750,0.0625,0.69201660156250,0.16174316406250,0.70178222656250,0.04888916015625,stop
446.88,3,0,3,0,0.2700,-0.1300,-0.1000,-0.3125,1.3750,0.1250,0.69195556640625,0.16174316406250,0.70190429687500,0.04888916015625,stop
446.89,3,0,3,0,0.2800,-0.1100,-0.1000,0.0000,1.3750,0.0000,0.69183349609375,0.16174316406250,0.70202636718750,0.04888916015625,stop
446.90,3,0,3,0,0.2700,-0.0800,0.0000,0.0000,0.9375,0.0625,0.69177246093750,0.16174316406250,0.70208740234375,0.04888916015625,stop
446.91,3,0,3,0,0.2500,-0.0500,0.0000,0.0625,1.1875,0.2500,0.69171142578125,0.16174316406250,0.70214843750000,0.04888916015625,stop
446.92,3,0,3,0,0.2300,-0.0800,0.0000,0.0000,1.2500,0.2500,0.69158935546875,0.16168212890625,0.70220947265625,0.04888916015625,stop
446.93,3,0,3,0,0.1800,-0.1200,0.0100,0.0000,1.0625,0.4375,0.69152832031250,0.16168212890625,0.70233154296875,0.04888916015625,stop
446.94,3,0,3,0,0.1900,-0.1500,0.0000,-0.1250,1.0625,0.3750,0.69146728515625,0.16168212890625,0.70239257812500,0.04895019531250,stop
446.95,3,0,3,0,0.2000,-0.1800,0.0200,0.0000,0.6250,0.3125,0.69140625000000,0.16168212890625,0.70239257812500,0.04895019531250,stop
446.96,3,0,3,0,0.2200,-0.1800,0.0000,0.1250,0.8750,0.4375,0.69134521484375,0.16168212890625,0.70245361328125,0.04895019531250,stop
446.97,3,0,3,0,0.2600,-0.2000,-0.1200,0.6875,1.0625,0.3750,0.69128417968750,0.16168212890625,0.70257568359375,0.04888916015625,stop
446.98,3,0,3,0,0.2500,-0.1900,-0.0800,1.1250,0.9375,0.5625,0.69116210937500,0.16174316406250,0.70263671875000,0.04882812500000,stop
446.99,3,0,3,0,0.2700,-0.1500,-0.0300,1.5000,0.7500,0.5000,0.69110107421875,0.16186523437500,0.70269775390625,0.04870605468750,stop
447.00,3,0,3,0,0.2800,-0.1300,0.0100,1.3750,0.7500,0.4375,0.69104003906250,0.16192626953125,0.70275878906250,0.04864501953125,stop
447.01,3,0,3,0,0.2800,-0.1500,0.0500,1.2500,1.0000,0.2500,0.69097900390625,0.16198730468750,0.70281982421875,0.04858398437500,stop
447.04,3,0,3,0,0.2900,-0.1600,0.0300,0.3750,1.6250,0.0000,0.69073486328125,0.16198730468750,0.70306396484375,0.04852294921875,stop
447.04,3,0,3,0,0.2700,-0.1600,-0.0500,0.4375,2.1250,0.0000,0.69061279296875,0.16198730468750,0.70318603515625,0.04858398437500,stop
447.05,3,0,3,0,0.2800,-0.1600,-0.0800,0.3125,2.3750,0.1875,0.69042968750000,0.16198730468750,0.70330810546875,0.04858398437500,stop
447.06,3,0,3,0,0.2800,-0.1500,-0.0400,0.5625,2.8750,0.3125,0.69024658203125,0.16198730468750,0.70349121093750,0.04858398437500,stop
447.07,3,0,3,0,0.3100,-0.1300,0.0000,0.8125,3.0000,0.6250,0.69006347656250,0.16204833984375,0.70373535156250,0.04858398437500,stop
447.08,3,0,3,0,0.2500,-0.1400,0.0300,1.1875,3.3750,0.8750,0.68981933593750,0.16217041015625,0.70391845703125,0.04864501953125,stop
447.09,3,0,3,0,0.2400,-0.1500,-0.0100,1.3125,3.3750,1.0625,0.68957519531250,0.16229248046875,0.70410156250000,0.04864501953125,stop
447.10,3,0,3,0,0.2800,-0.1500,-0.0200,0.9375,3.6875,1.0000,0.68933105468750,0.16235351562500,0.70434570312500,0.04870605468750,stop
447.11,3,0,3,0,0.3000,-0.1300,-0.0800,0.8750,3.9375,0.8750,0.68908691406250,0.16247558593750,0.70458984375000,0.04876708984375,stop
447.13,3,0,3,0,0.3600,-0.1200,-0.1100,0.8750,3.5625,0.8125,0.68884277343750,0.16253662109375,0.70477294921875,0.04876708984375,stop
447.14,3,0,3,0,0.4300,-0.0600,-0.1100,1.0000,3.6875,0.9375,0.68853759765625,0.16265869140625,0.70501708984375,0.04882812500000,stop
447.14,3,0,3,0,0.4900,-0.0400,-0.1400,1.1250,4.1875,1.0625,0.68823242187500,0.16278076171875,0.70526123046875,0.04888916015625,stop
447.15,3,0,3,0,0.7700,-0.1000,-0.2400,1.5625,5.3125,1.6250,0.68786621093750,0.16296386718750,0.70556640625000,0.04895019531250,stop
447.16,3,0,3,0,0.8800,-0.1100,-0.3400,1.3750,7.4375,2.3125,0.68737792968750,0.16314697265625,0.70599365234375,0.04913330078125,stop
447.17,3,0,3,0,0.9900,-0.1200,-0.3500,1.1250,8.8125,2.8750,0.68682861328125,0.16339111328125,0.70648193359375,0.04931640625000,stop
447.18,3,0,3,0,1.1300,-0.1100,-0.3900,0.5000,10.0000,3.7500,0.68615722656250,0.16357421875000,0.70703125000000,0.04968261718750,stop
447.19,3,0,3,0,1.2800,-0.1500,-0.5400,-0.8125,11.9375,4.8750,0.68542480468750,0.16375732421875,0.70770263671875,0.05023193359375,stop
447.20,3,0,3,0,1.2800,-0.1800,-0.5500,-1.2500,13.8125,6.0000,0.68457031250000,0.16400146484375,0.70843505859375,0.05084228515625,stop
447.21,3,0,3,0,1.3200,-0.2500,-0.5000,-0.3125,13.5625,7.0625,0.68371582031250,0.16436767578125,0.70916748046875,0.05145263671875,stop
447.22,3,0,3,0,1.4700,-0.0700,-0.4400,1.2500,12.0625,8.2500,0.68286132812500,0.16491699218750,0.70977783203125,0.05206298828125,stop
447.23,3,0,3,0,1.6400,0.0000,-0.5700,0.8750,11.5000,8.8750,0.68212890625000,0.16546630859375,0.71032714843750,0.05273437500000,stop
447.24,3,0,3,0,1.6400,-0.0100,-0.6800,-1.6875,12.8750,8.5000,0.68127441406250,0.16583251953125,0.71099853515625,0.05352783203125,stop
447.25,3,0,3,0,1.6500,0.0500,-0.6600,-1.3750,13.0000,9.6250,0.68048095703125,0.16625976562500,0.71160888671875,0.05438232421875,stop
447.26,3,0,3,0,1.4100,0.0000,0.0700,4.5000,7.7500,11.0625,0.67987060546875,0.16723632812500,0.71191406250000,0.05487060546875,stop
447.27,3,0,3,0,1.4100,0.0000,0.0700,4.5000,7.7500,11.0625,0.67987060546875,0.16723632812500,0.71191406250000,0.05487060546875,stop
447.28,3,0,3,0,1.0000,0.1000,0.5200,10.6875,2.8125,10.8750,0.67944335937500,0.16851806640625,0.71197509765625,0.05487060546875,stop
447.28,3,0,3,0,0.3200,0.2000,0.8500,14.3125,0.0000,8.8750,0.67919921875000,0.16992187500000,0.71191406250000,0.05450439453125,stop
447.29,3,0,3,0,-0.5000,0.2200,1.1700,13.6875,-2.0625,6.2500,0.67907714843750,0.17114257812500,0.71179199218750,0.05401611328125,stop
447.30,3,0,3,0,-2.1100,0.3600,1.6500,12.6250,-3.9375,5.1875,0.67913818359375,0.17224121093750,0.71154785156250,0.05346679687500,stop
447.31,3,0,3,0,-3.0800,0.5000,1.6800,14.4375,-5.7500,5.0625,0.67926025390625,0.17340087890625,0.71118164062500,0.05279541015625,stop
447.32,3,0,3,0,-4.0200,0.6400,1.5500,17.3125,-8.5625,4.3125,0.67950439453125,0.17474365234375,0.71069335937500,0.05181884765625,stop
447.35,3,0,3,0,-5.9200,0.9500,1.1600,9.5625,-3.6875,3.9375,0.67968750000000,0.17681884765625,0.71008300781250,0.05053710937500,stop
447.35,3,0,3,0,-5.7000,1.0200,1.0900,1.8125,-1.5000,3.9375,0.67974853515625,0.17718505859375,0.70989990234375,0.05065917968750,stop
447.36,3,0,3,0,-5.1400,1.1700,0.8500,-5.6875,3.3125,2.8750,0.67962646484375,0.17700195312500,0.71002197265625,0.05126953125000,stop
447.37,3,0,3,0,-3.2500,1.1700,0.2900,-13.3125,6.6250,0.6875,0.67944335937500,0.17620849609375,0.71038818359375,0.05218505859375,stop
447.38,3,0,3,0,-2.3400,0.9200,0.0400,-18.8125,4.2500,-2.0625,0.67944335937500,0.17492675781250,0.71057128906250,0.05334472656250,stop
447.39,3,0,3,0,-1.5700,0.5900,-0.1400,-21.7500,-0.8750,-5.0625,0.67987060546875,0.17333984375000,0.71044921875000,0.05438232421875,stop
447.40,3,0,3,0,-1.0000,0.3100,-0.3400,-24.6250,-1.9375,-6.8125,0.68041992187500,0.17144775390625,0.71032714843750,0.05541992187500,stop
447.41,3,0,3,0,0.1500,-0.0400,-0.7000,-27.6250,3.0000,-6.6875,0.68066406250000,0.16937255859375,0.71051025390625,0.05682373046875,stop
447.42,3,0,3,0,0.7100,-0.1500,-0.9100,-29.1250,11.8125,-5.3125,0.68035888671875,0.16723632812500,0.71112060546875,0.05847167968750,stop
447.43,3,0,3,0,1.3300,-0.4800,-1.1600,-26.8750,17.3750,-2.4375,0.67968750000000,0.16540527343750,0.71203613281250,0.06024169921875,stop
447.45,3,0,3,0,2.0100,-1.0600,-0.7500,-20.5625,14.5000,-1.7500,0.67913818359375,0.16400146484375,0.71282958984375,0.06164550781250,stop
447.45,3,0,3,0,2.4700,-1.1100,-0.5800,-21.5625,6.8125,-1.5000,0.67901611328125,0.16259765625000,0.71313476562500,0.06298828125000,stop
447.46,3,0,3,0,2.9400,-0.8700,-0.4700,-20.1875,4.5000,0.5625,0.67901611328125,0.16137695312500,0.71325683593750,0.06433105468750,stop
447.47,3,0,3,0,3.1000,-0.9900,-0.3400,-16.3750,1.5000,-0.4375,0.67913818359375,0.16040039062500,0.71325683593750,0.06536865234375,stop
447.48,3,0,3,0,3.1700,-0.9300,-0.4100,-13.3125,1.3125,-0.8125,0.67926025390625,0.15954589843750,0.71325683593750,0.06616210937500,stop
447.49,3,0,3,0,3.2000,-0.9300,-0.6800,-10.3125,1.3125,-0.5625,0.67932128906250,0.15887451171875,0.71331787109375,0.06677246093750,stop
447.50,3,0,3,0,3.2600,-0.9700,-0.5900,-6.1875,3.4375,-0.2500,0.67919921875000,0.15850830078125,0.71350097656250,0.06719970703125,stop
447.51,3,0,3,0,3.2500,-0.8200,-0.5600,-4.0625,6.5000,0.1250,0.67883300781250,0.15820312500000,0.71386718750000,0.06756591796875,stop
447.52,3,0,3,0,2.9300,-0.4600,-0.3000,-0.9375,7.5625,0.1250,0.67840576171875,0.15814208984375,0.71429443359375,0.06774902343750,stop
447.53,3,0,3,0,2.9300,-0.4600,-0.3000,-0.9375,7.5625,0.1250,0.67840576171875,0.15814208984375,0.71429443359375,0.06774902343750,stop
447.54,3,0,3,0,2.6000,-0.3900,-0.0800,0.6250,6.0000,0.5000,0.67797851562500,0.15814208984375,0.71466064453125,0.06774902343750,stop
447.54,3,0,3,0,2.2500,-0.3800,0.0900,0.9375,3.9375,0.8750,0.67773437500000,0.15820312500000,0.71490478515625,0.06781005859375,stop
447.55,3,0,3,0,1.5500,-0.2500,0.1700,-0.6875,4.5625,1.3125,0.67742919921875,0.15820312500000,0.71514892578125,0.06799316406250,stop
447.56,3,0,3,0,1.2700,-0.1600,0.0100,-3.3125,6.8750,1.3750,0.67706298828125,0.15808105468750,0.71551513671875,0.06842041015625,stop
447.57,3,0,3,0,1.0100,-0.0600,-0.2000,-5.6250,9.7500,1.7500,0.67651367187500,0.15777587890625,0.71600341796875,0.06896972656250,stop
447.58,3,0,3,0,0.9300,-0.0700,-0.2300,-4.8125,10.3750,2.8750,0.67590332031250,0.15765380859375,0.71655273437500,0.06958007812500,stop
447.59,3,0,3,0,1.0300,-0.4700,-0.2700,-3.3125,10.0000,4.1250,0.67529296875000,0.15765380859375,0.71710205078125,0.07019042968750,stop
447.60,3,0,3,0,1.2500,-0.6900,-0.1500,-3.8125,9.7500,4.4375,0.67468261718750,0.15765380859375,0.71759033203125,0.07080078125000,stop
447.62,3,0,3,0,1.5200,-0.8100,0.0900,-4.5000,7.6250,4.2500,0.67425537109375,0.15759277343750,0.71795654296875,0.07147216796875,stop
447.63,3,0,3,0,2.0800,-0.9200,0.3500,-5.4375,4.1250,3.1250,0.67407226562500,0.15740966796875,0.71813964843750,0.07208251953125,stop
447.63,3,0,3,0,2.3700,-1.0600,0.3900,-7.1250,1.1250,1.8750,0.67407226562500,0.15710449218750,0.71813964843750,0.07263183593750,stop
447.64,3,0,3,0,2.7000,-1.1700,0.4000,-9.7500,0.1250,0.3750,0.67419433593750,0.15655517578125,0.71807861328125,0.07324218750000,stop
447.65,3,0,3,0,3.0600,-1.3000,0.4200,-10.8750,0.5625,-0.6250,0.67431640625000,0.15588378906250,0.71801757812500,0.07391357421875,stop
447.66,3,0,3,0,3.8100,-1.4100,0.5200,-10.6875,-0.2500,-2.1250,0.67443847656250,0.15509033203125,0.71801757812500,0.07446289062500,stop
447.67,3,0,3,0,4.1400,-1.4300,0.6500,-9.5625,-3.6250,-3.0000,0.67480468750000,0.15435791015625,0.71777343750000,0.07482910156250,stop
447.68,3,0,3,0,4.3400,-1.3300,0.7200,-7.8750,-10.0625,-3.6250,0.67559814453125,0.15374755859375,0.71716308593750,0.07495117187500,stop
447.69,3,0,3,0,4.1200,-1.2700,0.5700,-6.5000,-15.7500,-5.5000,0.67669677734375,0.15307617187500,0.71624755859375,0.07482910156250,stop
447.71,3,0,3,0,1.4900,-0.8100,-0.5100,-6.3125,-15.6875,-9.5625,0.67779541015625,0.15222167968750,0.71545410156250,0.07446289062500,stop
447.71,3,0,3,0,-0.9000,0.1700,-1.0200,-5.8125,-14.1875,-13.1250,0.67889404296875,0.15118408203125,0.71472167968750,0.07385253906250,stop
447.72,3,0,3,0,-3.7600,1.2800,-1.6300,0.6250,-14.7500,-19.1250,0.67987060546875,0.15008544921875,0.71411132812500,0.07244873046875,stop
447.73,3,0,3,0,-10.5100,3.6800,-2.4200,11.3125,-23.6875,-30.5625,0.68139648437500,0.14898681640625,0.71319580078125,0.06964111328125,stop
447.74,3,0,3,0,-13.6800,4.6500,-2.3600,11.3750,-29.6250,-31.2500,0.68328857421875,0.14794921875000,0.71191406250000,0.06665039062500,stop
447.75,3,0,3,0,-15.4600,3.9500,-1.5300,0.6250,-20.0625,-13.6250,0.68463134765625,0.14721679687500,0.71087646484375,0.06555175781250,stop
447.76,3,0,3,0,-13.6200,2.6000,0.0000,16.9375,-16.1875,5.3125,0.68536376953125,0.14868164062500,0.70996093750000,0.06463623046875,stop
447.78,3,0,3,0,-4.7200,0.9000,0.5600,41.6875,3.2500,16.0625,0.68450927734375,0.15216064453125,0.71014404296875,0.06304931640625,stop
447.79,3,0,3,0,-2.9200,0.3700,-0.0600,26.0000,39.6250,16.5000,0.68157958984375,0.15447998046875,0.71246337890625,0.06292724609375,stop
447.79,3,0,3,0,-2.9200,0.3700,-0.0600,26.0000,39.6250,16.5000,0.68157958984375,0.15447998046875,0.71246337890625,0.06292724609375,stop
447.79,3,0,3,0,-1.9800,0.1900,-0.1700,-2.1875,36.1875,10.3750,0.67932128906250,0.15478515625000,0.71447753906250,0.06414794921875,stop
447.80,3,0,3,0,-0.8600,0.0300,-0.0800,-13.9375,14.0625,3.2500,0.67858886718750,0.15411376953125,0.71514892578125,0.06542968750000,stop
447.81,3,0,3,0,2.0100,-0.3200,0.3600,-15.6875,0.5000,1.9375,0.67877197265625,0.15332031250000,0.71502685546875,0.06652832031250,stop
447.82,3,0,3,0,3.3500,-0.6800,0.4200,-15.5625,0.7500,3.1875,0.67895507812500,0.15258789062500,0.71496582031250,0.06768798828125,stop
447.83,3,0,3,0,4.0300,-1.0800,0.5000,-17.4375,12.1875,5.5625,0.67834472656250,0.15179443359375,0.71551513671875,0.06927490234375,stop
447.85,3,0,3,0,5.6900,-1.8000,-0.2800,-20.3750,28.1875,11.3750,0.67681884765625,0.15112304687500,0.71691894531250,0.07159423828125,stop
447.86,3,0,3,0,6.2300,-1.7700,-0.0400,-17.8750,30.4375,20.1875,0.67498779296875,0.15118408203125,0.71832275390625,0.07427978515625,stop
447.87,3,0,3,0,6.5500,-1.9400,-0.2300,-11.0000,19.3125,22.9375,0.67376708984375,0.15179443359375,0.71911621093750,0.07659912109375,stop
447.88,3,0,3,0,6.8600,-2.0200,-0.1000,-1.1250,-1.2500,24.0000,0.67370605468750,0.15325927734375,0.71868896484375,0.07806396484375,stop
447.88,3,0,3,0,6.8700,-1.3100,-0.0800,6.5000,-11.4375,22.9375,0.67419433593750,0.15515136718750,0.71777343750000,0.07885742187500,stop
447.89,3,0,3,0,6.8300,-1.3100,0.0100,10.1250,-12.3750,16.8125,0.67468261718750,0.15692138671875,0.71691894531250,0.07904052734375,stop
447.90,3,0,3,0,6.1600,-1.6600,0.1400,7.0625,-5.0000,6.3750,0.67486572265625,0.15777587890625,0.71655273437500,0.07891845703125,stop
447.91,3,0,3,0,5.5600,-1.7900,0.1900,5.6250,0.3750,1.6250,0.67474365234375,0.15820312500000,0.71655273437500,0.07861328125000,stop
447.93,3,0,3,0,4.4500,-1.4800,0.2100,8.8125,-2.8750,-0.1250,0.67480468750000,0.15875244140625,0.71649169921875,0.07806396484375,stop
447.94,3,0,3,0,3.2600,-1.0300,0.1600,11.4375,-8.8125,-2.8750,0.67523193359375,0.15930175781250,0.71606445312500,0.07702636718750,stop
447.95,3,0,3,0,1.7800,-0.4700,-0.1000,12.9375,-9.1875,-5.5625,0.67565917968750,0.15979003906250,0.71569824218750,0.07574462890625,stop
447.96,3,0,3,0,-3.1100,1.7700,-1.0700,15.9375,-6.5625,-9.1875,0.67590332031250,0.16015625000000,0.71557617187500,0.07409667968750,stop
447.96,3,0,3,0,-6.7600,2.5600,-1.7700,21.3750,-12.3750,-20.5000,0.67651367187500,0.16021728515625,0.71527099609375,0.07141113281250,stop
447.97,3,0,3,0,-11.3400,3.5200,-1.5300,28.3125,-27.1875,-37.9375,0.67803955078125,0.15972900390625,0.71435546875000,0.06701660156250,stop
447.98,3,0,3,0,-14.3200,3.6100,-0.8700,26.3125,-51.9375,-37.1250,0.68109130859375,0.15924072265625,0.71191406250000,0.06243896484375,stop
447.99,3,0,3,0,-12.0000,0.9800,2.6600,19.3125,-56.3750,-11.6875,0.68438720703125,0.15997314453125,0.70886230468750,0.05975341796875,stop
448.00,3,0,3,0,-7.5900,1.2200,2.8500,26.3125,-31.6250,9.0000,0.68591308593750,0.16229248046875,0.70697021484375,0.05822753906250,stop
448.02,3,0,3,0,-4.1200,1.2000,1.7300,16.0625,28.5000,15.1875,0.68383789062500,0.16406250000000,0.70855712890625,0.05853271484375,stop
448.03,3,0,3,0,-0.8700,0.9200,-0.6000,-8.5000,69.0000,13.6250,0.67962646484375,0.16400146484375,0.71240234375000,0.06085205078125,stop
448.04,3,0,3,0,0.6500,0.5400,-1.0300,-24.2500,69.8125,9.6875,0.67553710937500,0.16278076171875,0.71624755859375,0.06396484375000,stop
448.04,3,0,3,0,1.7500,0.1800,-1.3200,-30.7500,56.5000,4.3750,0.67242431640625,0.16094970703125,0.71936035156250,0.06695556640625,stop
448.05,3,0,3,0,1.7500,0.1800,-1.3200,-30.7500,56.5000,4.3750,0.67242431640625,0.16094970703125,0.71936035156250,0.06695556640625,moving
448.05,3,0,3,0,2.9900,-0.5300,-0.7600,-28.6250,31.6875,1.3125,0.67077636718750,0.15917968750000,0.72100830078125,0.06927490234375,moving
448.06,3,0,3,0,5.3000,-1.2700,-0.0700,-26.0625,18.2500,2.8125,0.66998291015625,0.15771484375000,0.72192382812500,0.07135009765625,moving
448.07,3,0,3,0,5.9600,-1.5400,-0.6600,-29.6250,22.0625,5.3750,0.66894531250000,0.15618896484375,0.72296142578125,0.07379150390625,moving
448.09,3,0,3,0,6.4900,-1.2300,-0.1800,-31.6875,24.0625,8.9375,0.66778564453125,0.15472412109375,0.72399902343750,0.07666015625000,moving
448.10,3,0,3,0,6.8500,-1.2800,-0.4200,-28.3750,22.1250,13.3125,0.66668701171875,0.15374755859375,0.72491455078125,0.07952880859375,moving
448.11,3,0,3,0,7.4600,-0.6800,-0.4900,-25.5625,23.8750,16.3750,0.66540527343750,0.15313720703125,0.72595214843750,0.08239746093750,moving
448.12,3,0,3,0,7.4700,-0.9800,-0.6700,-23.1250,30.5625,14.0000,0.66363525390625,0.15246582031250,0.72735595703125,0.08508300781250,moving
448.13,3,0,3,0,6.8200,-1.3400,-0.8300,-17.5000,29.4375,7.9375,0.66198730468750,0.15179443359375,0.72882080078125,0.08709716796875,moving
448.13,3,0,3,0,5.8500,-1.6000,-0.5800,-5.9375,16.4375,4.5625,0.66094970703125,0.15161132812500,0.72967529296875,0.08795166015625,moving
448.15,3,0,3,0,5.4400,-1.7400,-0.0500,6.8125,-1.5625,5.6250,0.66088867187500,0.15234375000000,0.72955322265625,0.08782958984375,moving
448.16,3,0,3,0,4.8800,-1.7900,0.8000,12.7500,-14.4375,4.7500,0.66162109375000,0.15350341796875,0.72875976562500,0.08709716796875,moving
448.17,3,0,3,0,3.8900,-1.7800,1.0400,18.3750,-28.4375,2.1250,0.66314697265625,0.15490722656250,0.72723388671875,0.08569335937500,moving
448.18,3,0,3,0,1.2300,-0.9600,1.2500,27.5625,-40.6875,-0.6875,0.66534423828125,0.15679931640625,0.72509765625000,0.08331298828125,moving
448.19,3,0,3,0,-1.1100,0.1500,0.9400,28.6250,-46.0625,-5.6250,0.66790771484375,0.15844726562500,0.72271728515625,0.08056640625000,moving
448.20,3,0,3,0,-4.4800,1.3900,0.2000,23.3125,-47.8750,-16.8125,0.67071533203125,0.15905761718750,0.72033691406250,0.07745361328125,moving
448.21,3,0,3,0,-8.1800,1.8900,-0.6000,26.2500,-62.6875,-39.3125,0.67449951171875,0.15856933593750,0.71734619140625,0.07263183593750,moving
448.21,3,0,3,0,-16.5700,2.5000,0.8300,37.5000,-95.1875,-53.0000,0.68023681640625,0.15802001953125,0.71270751953125,0.06585693359375,moving
448.22,3,0,3,0,-17.4000,1.0600,2.2200,32.3750,-109.6250,-39.8750,0.68676757812500,0.15814208984375,0.70690917968750,0.05993652343750,moving
448.23,3,0,3,0,-13.6900,0.4500,3.6100,19.3125,-77.8750,-11.7500,0.69140625000000,0.15893554687500,0.70251464843750,0.05694580078125,moving
448.25,3,0,3,0,-4.5500,0.9100,1.2000,11.1875,4.6250,5.6875,0.69091796875000,0.15997314453125,0.70275878906250,0.05670166015625,moving
448.26,3,0,3,0,-3.0000,1.1600,-0.2500,3.3750,71.2500,12.6875,0.68640136718750,0.16058349609375,0.70684814453125,0.05822753906250,moving
448.27,3,0,3,0,-1.0700,0.6300,-1.0400,-15.6250,101.3750,12.2500,0.68029785156250,0.15985107421875,0.71264648437500,0.06134033203125,moving
448.28,3,0,3,0,0.6900,0.3500,-1.1800,-34.5000,99.6250,7.3125,0.67449951171875,0.15771484375000,0.71826171875000,0.06530761718750,moving
448.29,3,0,3,0,3.5300,-1.2000,-1.0100,-39.3125,66.3750,1.5625,0.67089843750000,0.15515136718750,0.72192382812500,0.06872558593750,moving
448.29,3,0,3,0,4.8000,-1.4700,-0.0400,-33.2500,26.3750,-1.0000,0.66967773437500,0.15295410156250,0.72326660156250,0.07116699218750,moving
448.30,3,0,3,0,5.9800,-2.0000,0.1000,-33.5000,7.1875,1.6875,0.66961669921875,0.15106201171875,0.72344970703125,0.07342529296875,moving
448.31,3,0,3,0,5.9800,-2.0000,0.1000,-33.5000,7.1875,1.6875,0.66961669921875,0.15106201171875,0.72344970703125,0.07342529296875,moving
448.32,3,0,3,0,6.8100,-1.8800,-0.3200,-39.7500,12.0625,7.3750,0.66937255859375,0.14910888671875,0.72381591796875,0.07653808593750,moving
448.33,3,0,3,0,8.1700,-1.3200,-0.6900,-40.7500,17.9375,14.9375,0.66864013671875,0.14758300781250,0.72436523437500,0.08020019531250,moving
448.34,3,0,3,0,8.3800,-0.9100,-0.5100,-44.9375,34.2500,19.1875,0.66693115234375,0.14593505859375,0.72583007812500,0.08459472656250,moving
448.35,3,0,3,0,8.5700,-0.9600,-0.6300,-45.1250,50.3750,18.9375,0.66412353515625,0.14410400390625,0.72814941406250,0.08923339843750,moving
448.36,3,0,3,0,8.3500,-0.6800,-1.4900,-32.3125,58.7500,15.1875,0.66064453125000,0.14276123046875,0.73107910156250,0.09289550781250,moving
448.37,3,0,3,0,7.7400,-1.3000,-1.7200,-11.3125,48.0625,5.0000,0.65771484375000,0.14202880859375,0.73370361328125,0.09448242187500,moving
448.38,3,0,3,0,6.7500,-1.2000,-1.3000,8.1250,13.5625,1.6250,0.65667724609375,0.14245605468750,0.73455810546875,0.09423828125000,moving
448.38,3,0,3,0,5.1700,-1.1000,-1.0500,20.1250,-7.6250,2.2500,0.65692138671875,0.14385986328125,0.73425292968750,0.09295654296875,moving
448.39,3,0,3,0,3.4300,-0.6600,-0.4500,28.8750,-18.6875,2.6250,0.65771484375000,0.14581298828125,0.73339843750000,0.09106445312500,moving
448.41,3,0,3,0,1.2100,-0.3500,-1.0500,39.6250,-23.7500,-0.1250,0.65869140625000,0.14831542968750,0.73236083984375,0.08819580078125,moving
448.42,3,0,3,0,-1.7500,0.7300,-1.1900,56.3750,-39.0625,-7.0625,0.66052246093750,0.15136718750000,0.73065185546875,0.08367919921875,moving
448.43,3,0,3,0,-10.9700,4.4400,-1.1900,71.6875,-62.6875,-25.0625,0.66369628906250,0.15435791015625,0.72784423828125,0.07684326171875,moving
448.44,3,0,3,0,-15.6900,3.6600,-0.5000,71.3125,-102.6250,-58.5625,0.66961669921875,0.15545654296875,0.72314453125000,0.06756591796875,moving
448.45,3,0,3,0,-18.0300,1.9300,2.1700,54.4375,-131.9375,-71.6250,0.67749023437500,0.15490722656250,0.71667480468750,0.05810546875000,moving
448.46,3,0,3,0,-15.5500,-0.1600,3.9000,41.5625,-122.6875,-29.5000,0.68469238281250,0.15612792968750,0.70996093750000,0.05212402343750,moving
448.46,3,0,3,0,-5.2400,0.6200,3.5700,37.3125,-45.6250,10.3125,0.68695068359375,0.15917968750000,0.70727539062500,0.04980468750000,moving
448.48,3,0,3,0,-3.4800,0.7100,1.4000,33.2500,40.7500,17.0625,0.68389892578125,0.16204833984375,0.70959472656250,0.04931640625000,moving
448.49,3,0,3,0,-1.9500,0.6300,-0.0800,0.9375,107.8125,15.8125,0.67712402343750,0.16259765625000,0.71582031250000,0.05175781250000,moving
448.50,3,0,3,0,-0.2700,0.5800,-0.6000,-25.8750,126.8750,14.8750,0.66943359375000,0.16143798828125,0.72290039062500,0.05603027343750,moving
448.51,3,0,3,0,2.4300,-0.0800,-0.2600,-31.3750,98.1250,11.2500,0.66363525390625,0.15985107421875,0.72833251953125,0.06005859375000,moving
448.52,3,0,3,0,3.7900,-0.9000,0.2700,-25.1250,50.7500,10.5000,0.66070556640625,0.15875244140625,0.73095703125000,0.06292724609375,moving
448.53,3,0,3,0,4.9800,-1.5800,0.6500,-14.6875,5.3750,12.6875,0.66046142578125,0.15869140625000,0.73101806640625,0.06469726562500,moving
448.54,3,0,3,0,6.1500,-2.2200,1.0100,-9.6250,-19.1250,16.4375,0.66174316406250,0.15930175781250,0.72961425781250,0.06597900390625,moving
448.55,3,0,3,0,6.5500,-2.3500,1.2100,-14.9375,-24.5000,22.6875,0.66339111328125,0.16003417968750,0.72784423828125,0.06793212890625,moving
448.56,3,0,3,0,7.1000,-2.3300,1.1100,-19.8125,-22.0000,32.0625,0.66485595703125,0.16101074218750,0.72595214843750,0.07073974609375,moving
448.57,3,0,3,0,7.1000,-2.3300,1.1100,-19.8125,-22.0000,32.0625,0.66485595703125,0.16101074218750,0.72595214843750,0.07073974609375,moving
448.57,3,0,3,0,7.7000,-2.3100,1.0000,-20.2500,-13.3125,40.5625,0.66571044921875,0.16247558593750,0.72448730468750,0.07415771484375,moving
448.58,3,0,3,0,8.4400,-1.8700,0.7000,-17.8750,-3.9375,46.4375,0.66589355468750,0.16442871093750,0.72351074218750,0.07794189453125,moving
448.59,3,0,3,0,8.4000,-1.3400,0.1000,-12.2500,6.3125,49.1875,0.66534423828125,0.16674804687500,0.72308349609375,0.08166503906250,moving
448.60,3,0,3,0,7.9400,-0.2800,-0.0700,-6.4375,16.2500,39.6875,0.66412353515625,0.16876220703125,0.72338867187500,0.08459472656250,moving
448.62,3,0,3,0,3.7300,-1.0600,-0.6700,-11.2500,13.3750,-6.1250,0.66204833984375,0.16815185546875,0.72515869140625,0.08685302734375,moving
448.63,3,0,3,0,2.6300,-0.5200,0.0100,2.7500,-14.0625,-12.8750,0.66302490234375,0.16760253906250,0.72454833984375,0.08575439453125,moving
448.64,3,0,3,0,0.3600,0.0300,-0.9100,23.8750,-39.4375,-18.1875,0.66528320312500,0.16809082031250,0.72271728515625,0.08258056640625,moving
448.65,3,0,3,0,-7.5100,4.0600,-2.4200,40.6250,-57.7500,-34.1250,0.66857910156250,0.16876220703125,0.72015380859375,0.07720947265625,moving
448.66,3,0,3,0,-11.5900,5.4700,-1.6600,41.5625,-69.0000,-68.1250,0.67266845703125,0.16735839843750,0.71740722656250,0.06958007812500,moving
448.67,3,0,3,0,-16.7800,4.0900,-0.7200,25.2500,-74.8750,-103.0000,0.67761230468750,0.16284179687500,0.71459960937500,0.06091308593750,moving
448.68,3,0,3,0,-21.0400,-0.0300,0.0600,14.9375,-79.4375,-104.2500,0.68286132812500,0.15765380859375,0.71142578125000,0.05267333984375,moving
448.69,3,0,3,0,-9.3800,0.5300,3.4500,34.5000,-80.5625,-37.8750,0.68750000000000,0.15771484375000,0.70727539062500,0.04711914062500,moving
448.70,3,0,3,0,-4.2200,0.6900,2.9400,54.1250,-21.2500,23.1250,0.68798828125000,0.16247558593750,0.70587158203125,0.04492187500000,moving
448.71,3,0,3,0,-3.2400,0.2100,2.1100,34.2500,29.8125,21.7500,0.68554687500000,0.16571044921875,0.70751953125000,0.04449462890625,moving
448.72,3,0,3,0,-2.6900,0.9900,0.8000,0.0000,59.4375,13.6250,0.68182373046875,0.16632080078125,0.71087646484375,0.04620361328125,moving
448.73,3,0,3,0,1.0900,0.8900,0.2500,-22.5000,54.5625,11.5625,0.67871093750000,0.16546630859375,0.71380615234375,0.04907226562500,moving
448.74,3,0,3,0,2.3600,0.1200,0.3300,-30.8125,31.9375,7.8125,0.67712402343750,0.16400146484375,0.71545410156250,0.05187988281250,moving
448.75,3,0,3,0,3.5600,-0.6700,0.2900,-34.8125,10.7500,5.5625,0.67694091796875,0.16223144531250,0.71588134765625,0.05456542968750,moving
448.76,3,0,3,0,4.8000,-1.5600,-0.0200,-36.8125,5.8125,3.3125,0.67706298828125,0.16027832031250,0.71600341796875,0.05712890625000,moving
448.77,3,0,3,0,5.6900,-1.7700,-0.2900,-42.1875,15.6875,4.3125,0.67663574218750,0.15795898437500,0.71661376953125,0.06024169921875,moving
448.78,3,0,3,0,6.3300,-1.9000,-0.5300,-45.1875,24.0000,11.0625,0.67572021484375,0.15582275390625,0.71765136718750,0.06408691406250,moving
448.79,3,0,3,0,7.0000,-2.0700,-0.6800,-42.5000,20.5000,18.8750,0.67492675781250,0.15441894531250,0.71832275390625,0.06811523437500,moving
