timestamp,calib_mag,calib_accel,calib_gyro,calib_sys,lacc_x,lacc_y,lacc_z,gyro_x,gyro_y,gyro_z,quat_w,quat_x,quat_y,quat_z,label
182.92,3,0,3,3,-2.9200,-2.7400,-1.8100,13.6875,-55.6875,83.0000,0.59277343750000,-0.57128906250000,-0.43682861328125,-0.36254882812500,moving
182.93,3,0,3,3,-1.6100,-1.7600,-1.0200,14.7500,-64.9375,88.4375,0.59381103515625,-0.57592773437500,-0.43621826171875,-0.35412597656250,moving
182.94,3,0,3,3,-0.5900,-1.1500,-0.4100,14.2500,-68.5625,91.6875,0.59472656250000,-0.58081054687500,-0.43554687500000,-0.34533691406250,moving
182.97,3,0,3,3,1.0200,0.6100,0.3100,23.1875,-80.5000,88.4375,0.59631347656250,-0.59002685546875,-0.43542480468750,-0.32666015625000,moving
182.97,3,0,3,3,1.9200,2.6500,0.5300,30.6250,-86.6875,87.4375,0.59704589843750,-0.59423828125000,-0.43627929687500,-0.31640625000000,moving
182.98,3,0,3,3,2.5800,4.0000,0.5400,37.7500,-86.4375,78.8125,0.59783935546875,-0.59765625000000,-0.43768310546875,-0.30633544921875,moving
182.99,3,0,3,3,3.2100,5.4500,0.5800,40.1875,-87.1250,64.5625,0.59832763671875,-0.60034179687500,-0.43988037109375,-0.29681396484375,moving
183.01,3,0,3,3,3.7600,6.7900,0.7200,41.7500,-86.3125,48.4375,0.59844970703125,-0.60223388671875,-0.44293212890625,-0.28814697265625,moving
183.02,3,0,3,3,4.9200,7.7900,1.5000,48.9375,-88.1875,40.0625,0.59857177734375,-0.60345458984375,-0.44659423828125,-0.27947998046875,moving
183.02,3,0,3,3,5.8500,7.8800,0.8300,52.6875,-98.0625,29.1875,0.59820556640625,-0.60418701171875,-0.45141601562500,-0.27069091796875,moving
183.04,3,0,3,3,6.8500,7.5900,1.2900,49.7500,-98.4375,23.3750,0.59747314453125,-0.60479736328125,-0.45648193359375,-0.26232910156250,moving
183.05,3,0,3,3,6.9000,6.1900,1.8800,53.6250,-90.8125,13.1250,0.59698486328125,-0.60461425781250,-0.46173095703125,-0.25469970703125,moving
183.05,3,0,3,3,6.9100,5.4900,2.0800,36.8125,-83.3125,1.7500,0.59558105468750,-0.60461425781250,-0.46679687500000,-0.24871826171875,moving
183.06,3,0,3,3,6.9300,4.8800,1.8800,18.6875,-67.7500,-10.6875,0.59356689453125,-0.60461425781250,-0.47125244140625,-0.24493408203125,moving
183.07,3,0,3,3,7.1800,4.8900,1.7700,2.1875,-40.1250,-24.5625,0.59149169921875,-0.60437011718750,-0.47473144531250,-0.24401855468750,moving
183.08,3,0,3,3,5.7400,5.2200,1.7900,-3.5000,-5.3750,-37.8125,0.59027099609375,-0.60308837890625,-0.47692871093750,-0.24584960937500,moving
183.10,3,0,3,3,5.1400,5.6200,0.8200,-5.9375,27.8750,-49.4375,0.59002685546875,-0.60070800781250,-0.47796630859375,-0.25012207031250,moving
183.11,3,0,3,3,4.5300,5.7500,-0.1200,-10.3750,52.9375,-62.5000,0.59033203125000,-0.59741210937500,-0.47827148437500,-0.25659179687500,moving
183.12,3,0,3,3,3.7700,5.2400,-0.8000,-15.3125,72.0000,-73.4375,0.59082031250000,-0.59350585937500,-0.47808837890625,-0.26477050781250,moving
183.12,3,0,3,3,3.7700,5.2400,-0.8000,-15.3125,72.0000,-73.4375,0.59082031250000,-0.59350585937500,-0.47808837890625,-0.26477050781250,moving
183.13,3,0,3,3,2.9800,3.9700,-0.9700,-17.6250,83.9375,-82.3125,0.59149169921875,-0.58898925781250,-0.47760009765625,-0.27410888671875,moving
183.13,3,0,3,3,2.1700,3.0800,-0.7400,-19.1875,88.9375,-89.0625,0.59204101562500,-0.58404541015625,-0.47711181640625,-0.28411865234375,moving
183.14,3,0,3,3,1.2500,2.3500,-0.4600,-22.6875,92.3125,-92.7500,0.59234619140625,-0.57904052734375,-0.47650146484375,-0.29461669921875,moving
183.15,3,0,3,3,-0.8400,0.8800,-0.8500,-32.6875,93.0625,-93.2500,0.59210205078125,-0.57440185546875,-0.47558593750000,-0.30548095703125,moving
183.16,3,0,3,3,-1.2100,0.3600,-1.1200,-41.6250,91.4375,-92.8750,0.59130859375000,-0.57019042968750,-0.47436523437500,-0.31658935546875,moving
183.17,3,0,3,3,-1.9400,-0.9800,-0.5700,-34.5625,79.3125,-96.5000,0.59014892578125,-0.56567382812500,-0.47412109375000,-0.32696533203125,moving
183.19,3,0,3,3,-2.3200,-1.8900,-1.0600,-26.0000,60.7500,-98.6875,0.58850097656250,-0.56115722656250,-0.47515869140625,-0.33618164062500,moving
183.20,3,0,3,3,-3.7200,-4.3300,-0.6800,-21.3750,56.1250,-96.3750,0.58691406250000,-0.55657958984375,-0.47637939453125,-0.34478759765625,moving
183.21,3,0,3,3,-4.1200,-5.4400,-0.6900,-20.6875,55.8125,-92.1250,0.58538818359375,-0.55206298828125,-0.47735595703125,-0.35308837890625,moving
183.22,3,0,3,3,-4.5100,-6.3100,-1.0700,-25.0625,55.1875,-83.9375,0.58386230468750,-0.54809570312500,-0.47778320312500,-0.36108398437500,moving
183.22,3,0,3,3,-4.6400,-6.8300,-1.4600,-26.6875,51.3750,-73.5625,0.58239746093750,-0.54473876953125,-0.47784423828125,-0.36840820312500,moving
183.23,3,0,3,3,-4.5900,-7.2200,-2.1900,-24.5000,46.3750,-60.6250,0.58117675781250,-0.54193115234375,-0.47760009765625,-0.37469482421875,moving
183.24,3,0,3,3,-4.6600,-7.7700,-2.6400,-21.3125,31.3125,-22.3750,0.58074951171875,-0.54107666015625,-0.47637939453125,-0.37823486328125,moving
183.25,3,0,3,3,-5.0100,-8.4400,-3.2200,-21.3125,31.3125,-22.3750,0.58032226562500,-0.54016113281250,-0.47515869140625,-0.38171386718750,moving
183.26,3,0,3,3,-4.3500,-7.0300,-3.6600,-5.1875,13.7500,-7.6250,0.58038330078125,-0.53967285156250,-0.47460937500000,-0.38299560546875,moving
183.29,3,0,3,3,-2.9900,-5.5800,-2.9500,6.5625,-9.0000,1.8125,0.58050537109375,-0.53912353515625,-0.47601318359375,-0.38183593750000,moving
183.30,3,0,3,3,-2.5200,-5.5300,-2.3000,-10.1875,-7.5625,32.5625,0.58081054687500,-0.54125976562500,-0.47454833984375,-0.38018798828125,moving
183.30,3,0,3,3,-2.7800,-5.4600,-1.1900,-10.1875,-7.5625,32.5625,0.58105468750000,-0.54339599609375,-0.47302246093750,-0.37860107421875,moving
183.31,3,0,3,3,-2.9900,-5.2600,-1.0000,-14.2500,-14.0000,45.1250,0.58129882812500,-0.54644775390625,-0.47113037109375,-0.37622070312500,moving
183.32,3,0,3,3,-3.2500,-5.0400,-0.9700,-12.6875,-22.0000,55.5000,0.58160400390625,-0.55010986328125,-0.46917724609375,-0.37280273437500,moving
183.33,3,0,3,3,-3.5000,-4.7200,-1.1100,-4.2500,-33.5625,66.9375,0.58221435546875,-0.55419921875000,-0.46746826171875,-0.36791992187500,moving
183.34,3,0,3,3,-3.4700,-4.5100,-1.1000,18.8750,-47.7500,91.7500,0.58410644531250,-0.55853271484375,-0.46606445312500,-0.36016845703125,moving
183.36,3,0,3,3,-3.2300,-4.1500,-1.0700,25.6250,-53.5625,101.6250,0.58630371093750,-0.56304931640625,-0.46459960937500,-0.35125732421875,moving
183.37,3,0,3,3,-2.9600,-3.5900,-1.1400,30.2500,-55.3750,109.6875,0.58892822265625,-0.56762695312500,-0.46289062500000,-0.34161376953125,moving
183.38,3,0,3,3,-1.9400,-2.6500,-0.8200,34.8125,-60.3750,117.0625,0.59167480468750,-0.57238769531250,-0.46118164062500,-0.33111572265625,moving
183.38,3,0,3,3,-1.9400,-2.6500,-0.8200,34.8125,-60.3750,117.0625,0.59167480468750,-0.57238769531250,-0.46118164062500,-0.33111572265625,moving
183.38,3,0,3,3,-1.3700,-1.8000,-0.5200,38.3125,-62.5625,121.6250,0.59454345703125,-0.57708740234375,-0.45941162109375,-0.32012939453125,moving
183.39,3,0,3,3,-0.8100,-0.9600,-0.0500,39.5625,-59.8750,121.9375,0.59747314453125,-0.58160400390625,-0.45739746093750,-0.30914306640625,moving
183.40,3,0,3,3,0.1700,0.2100,0.0500,35.4375,-61.8125,113.5625,0.59985351562500,-0.58593750000000,-0.45574951171875,-0.29858398437500,moving
183.42,3,0,3,3,1.9500,2.7500,-0.3400,34.8125,-66.9375,104.1875,0.60162353515625,-0.58996582031250,-0.45483398437500,-0.28826904296875,moving
183.42,3,0,3,3,2.8400,4.1300,-0.4700,30.0000,-70.0625,89.4375,0.60260009765625,-0.59375000000000,-0.45458984375000,-0.27868652343750,moving
183.44,3,0,3,3,3.5900,5.6100,-0.7800,20.8750,-77.0625,70.3750,0.60235595703125,-0.59729003906250,-0.45544433593750,-0.27014160156250,moving
183.45,3,0,3,3,5.3000,8.3300,-0.3000,20.1875,-78.5625,50.7500,0.60144042968750,-0.60009765625000,-0.45739746093750,-0.26251220703125,moving
183.46,3,0,3,3,5.6200,9.0700,0.6700,23.7500,-76.8125,40.1250,0.60052490234375,-0.60223388671875,-0.45983886718750,-0.25537109375000,moving
183.47,3,0,3,3,5.2000,9.7200,2.5700,21.2500,-96.1875,36.6250,0.59857177734375,-0.60473632812500,-0.46337890625000,-0.24755859375000,moving
183.47,3,0,3,3,6.8700,8.7600,3.9700,17.6250,-115.2500,34.1250,0.59552001953125,-0.60766601562500,-0.46795654296875,-0.23895263671875,moving
183.48,3,0,3,3,8.2300,6.9400,4.7600,21.1875,-103.3125,28.6250,0.59301757812500,-0.60986328125000,-0.47222900390625,-0.23107910156250,moving
183.50,3,0,3,3,8.6400,5.3500,4.6900,-0.5625,-68.0000,16.3750,0.59051513671875,-0.61193847656250,-0.47485351562500,-0.22662353515625,moving
183.51,3,0,3,3,9.2800,4.9300,2.9500,-22.3750,-17.7500,-2.8750,0.58850097656250,-0.61328125000000,-0.47552490234375,-0.22680664062500,moving
183.52,3,0,3,3,8.2000,4.6800,1.8600,-23.8750,31.8125,-16.7500,0.58819580078125,-0.61315917968750,-0.47430419921875,-0.23034667968750,moving
183.53,3,0,3,3,5.5700,4.7300,0.7400,-20.5625,60.8750,-29.3750,0.58898925781250,-0.61175537109375,-0.47235107421875,-0.23596191406250,moving
183.54,3,0,3,3,4.7100,4.7200,0.3500,-17.6250,73.7500,-42.6875,0.59020996093750,-0.60937500000000,-0.47045898437500,-0.24285888671875,moving
183.55,3,0,3,3,4.1400,4.5500,-0.1200,-18.4375,80.1250,-56.1875,0.59130859375000,-0.60626220703125,-0.46893310546875,-0.25079345703125,moving
183.55,3,0,3,3,3.7100,4.0200,-0.9800,-22.2500,80.4375,-68.1875,0.59191894531250,-0.60278320312500,-0.46789550781250,-0.25952148437500,moving
183.56,3,0,3,3,3.7700,3.4000,-1.4300,-25.2500,78.3125,-77.8125,0.59197998046875,-0.59912109375000,-0.46740722656250,-0.26873779296875,moving
183.57,3,0,3,3,3.8100,2.9000,-1.6700,-23.8750,78.0000,-84.8750,0.59185791015625,-0.59497070312500,-0.46722412109375,-0.27819824218750,moving
183.59,3,0,3,3,3.5500,2.6100,-1.5500,-22.8750,70.7500,-89.0000,0.59136962890625,-0.59075927734375,-0.46765136718750,-0.28741455078125,moving
183.60,3,0,3,3,2.5500,1.9200,-0.8000,-20.1875,57.3750,-93.5000,0.59027099609375,-0.58648681640625,-0.46899414062500,-0.29602050781250,moving
183.61,3,0,3,3,2.1000,1.4500,-0.5300,-18.8750,45.9375,-98.8750,0.58856201171875,-0.58215332031250,-0.47125244140625,-0.30432128906250,moving
183.63,3,0,3,3,0.5000,0.0600,-0.1600,-29.4375,61.8125,-102.5625,0.58483886718750,-0.57342529296875,-0.47442626953125,-0.32263183593750,moving
183.63,3,0,3,3,0.5000,0.0600,-0.1600,-29.4375,61.8125,-102.5625,0.58483886718750,-0.57342529296875,-0.47442626953125,-0.32263183593750,moving
183.63,3,0,3,3,-0.7900,-1.8600,1.3300,-28.6875,70.7500,-99.6250,0.58349609375000,-0.56866455078125,-0.47497558593750,-0.33245849609375,moving
183.64,3,0,3,3,-1.8200,-3.4300,1.9000,-25.4375,81.6250,-92.4375,0.58288574218750,-0.56372070312500,-0.47467041015625,-0.34228515625000,moving
183.65,3,0,3,3,-2.4800,-4.6400,1.8500,-27.6250,92.8750,-84.0625,0.58276367187500,-0.55877685546875,-0.47326660156250,-0.35229492187500,moving
183.66,3,0,3,3,-4.3200,-7.3900,1.0100,-37.9375,93.4375,-74.5625,0.58245849609375,-0.55468750000000,-0.47100830078125,-0.36224365234375,moving
183.68,3,0,3,3,-4.5800,-8.0500,0.2300,-54.9375,90.0625,-64.2500,0.58142089843750,-0.55194091796875,-0.46777343750000,-0.37213134765625,moving
183.69,3,0,3,3,-4.4300,-7.9000,-1.4300,-57.6875,80.5000,-54.9375,0.58013916015625,-0.54998779296875,-0.46441650390625,-0.38116455078125,moving
183.70,3,0,3,3,-4.6000,-8.0800,-2.2600,-36.8125,62.4375,-44.0000,0.57940673828125,-0.54797363281250,-0.46215820312500,-0.38787841796875,moving
183.71,3,0,3,3,-5.6600,-8.7200,-3.0600,-6.8750,48.0625,-24.5625,0.58020019531250,-0.54565429687500,-0.46069335937500,-0.39172363281250,moving
183.72,3,0,3,3,-6.4300,-8.9200,-4.7900,20.2500,33.6250,-5.1875,0.58233642578125,-0.54327392578125,-0.45989990234375,-0.39276123046875,moving
183.72,3,0,3,3,-6.9900,-9.0100,-5.0400,57.5000,0.0000,6.5625,0.58526611328125,-0.54058837890625,-0.46154785156250,-0.39007568359375,moving
183.73,3,0,3,3,-6.5600,-8.6000,-5.5100,86.5625,-26.3125,3.0625,0.58837890625000,-0.53723144531250,-0.46563720703125,-0.38519287109375,moving
183.74,3,0,3,3,-5.4700,-6.4000,-4.5200,86.6875,-42.0625,6.5625,0.59094238281250,-0.53442382812500,-0.47039794921875,-0.37933349609375,moving
183.76,3,0,3,3,-5.6600,-5.8700,-3.6000,60.8125,-40.5625,24.0000,0.59289550781250,-0.53363037109375,-0.47338867187500,-0.37365722656250,moving
183.77,3,0,3,3,-5.4000,-5.6000,-3.0100,28.1875,-29.4375,45.1875,0.59448242187500,-0.53503417968750,-0.47369384765625,-0.36877441406250,moving
183.78,3,0,3,3,-4.7000,-5.0700,-2.2900,0.8750,-24.1250,63.3750,0.59558105468750,-0.53839111328125,-0.47198486328125,-0.36425781250000,moving
183.79,3,0,3,3,-3.7200,-4.5300,-1.8700,-8.0000,-29.2500,77.5000,0.59643554687500,-0.54296875000000,-0.46954345703125,-0.35913085937500,moving
183.80,3,0,3,3,-3.3800,-4.0900,-1.3000,-3.8125,-31.5625,91.5000,0.59783935546875,-0.54791259765625,-0.46673583984375,-0.35296630859375,moving
183.80,3,0,3,3,-3.2400,-3.5800,-0.8900,5.5625,-29.4375,101.5000,0.59997558593750,-0.55267333984375,-0.46356201171875,-0.34600830078125,moving
183.82,3,0,3,3,-2.7400,-3.1300,-0.1300,17.6250,-33.4375,111.0000,0.60284423828125,-0.55725097656250,-0.46038818359375,-0.33776855468750,moving
183.82,3,0,3,3,-2.2700,-2.8200,0.2600,25.8125,-43.3750,119.1875,0.60583496093750,-0.56195068359375,-0.45758056640625,-0.32830810546875,moving
183.84,3,0,3,3,-1.7000,-2.4600,0.4900,28.5000,-52.1875,124.7500,0.60864257812500,-0.56695556640625,-0.45501708984375,-0.31793212890625,moving
183.85,3,0,3,3,-0.3000,-1.4100,0.9900,34.6875,-61.1875,124.5625,0.61138916015625,-0.57171630859375,-0.45300292968750,-0.30682373046875,moving
183.86,3,0,3,3,0.2400,-0.4800,1.1300,40.8750,-66.7500,123.7500,0.61407470703125,-0.57623291015625,-0.45141601562500,-0.29522705078125,moving
183.87,3,0,3,3,0.7400,0.2100,0.8400,35.0000,-70.6875,122.0625,0.61614990234375,-0.58093261718750,-0.44989013671875,-0.28369140625000,moving
183.88,3,0,3,3,1.6600,0.9400,0.4300,31.5625,-73.0625,110.5625,0.61755371093750,-0.58538818359375,-0.44891357421875,-0.27270507812500,moving
183.88,3,0,3,3,2.5700,3.4700,0.0600,33.8125,-60.7500,95.0000,0.61914062500000,-0.58874511718750,-0.44812011718750,-0.26312255859375,moving
183.89,3,0,3,3,2.5700,3.4700,0.0600,33.8125,-60.7500,95.0000,0.61914062500000,-0.58874511718750,-0.44812011718750,-0.26312255859375,moving
183.90,3,0,3,3,3.2400,4.8300,-0.2700,20.9375,-51.8750,76.5625,0.61993408203125,-0.59179687500000,-0.44738769531250,-0.25543212890625,moving
183.91,3,0,3,3,4.0100,6.4000,-0.5600,3.9375,-60.5625,57.0625,0.61907958984375,-0.59521484375000,-0.44775390625000,-0.24902343750000,moving
183.92,3,0,3,3,4.4100,7.7800,-0.9000,-0.6875,-70.3750,48.3750,0.61730957031250,-0.59863281250000,-0.44903564453125,-0.24273681640625,moving
183.93,3,0,3,3,6.0100,9.1000,0.7000,3.0625,-65.6250,48.0000,0.61590576171875,-0.60174560546875,-0.45007324218750,-0.23657226562500,moving
183.95,3,0,3,3,8.3000,9.2400,2.3100,-2.5000,-91.0000,35.6250,0.61035156250000,-0.60888671875000,-0.45483398437500,-0.22332763671875,moving
183.96,3,0,3,3,9.3100,8.0300,2.5100,2.5000,-70.2500,21.8750,0.60809326171875,-0.61096191406250,-0.45745849609375,-0.21832275390625,moving
183.97,3,0,3,3,8.7900,6.9900,2.2200,-8.0000,-45.6875,11.0000,0.60607910156250,-0.61267089843750,-0.45916748046875,-0.21557617187500,moving
183.97,3,0,3,3,8.5200,5.9700,1.5900,-19.6250,-19.6250,-4.7500,0.60412597656250,-0.61389160156250,-0.46008300781250,-0.21557617187500,moving
183.99,3,0,3,3,7.3100,5.1000,1.3800,-19.3125,14.8125,-19.8750,0.60333251953125,-0.61383056640625,-0.46002197265625,-0.21826171875000,moving
184.00,3,0,3,3,4.5300,3.4900,2.1700,-17.3125,56.8750,-32.0625,0.60400390625000,-0.61236572265625,-0.45843505859375,-0.22369384765625,moving
184.01,3,0,3,3,3.9800,2.9500,1.4100,-20.0000,75.1250,-40.8750,0.60516357421875,-0.61022949218750,-0.45623779296875,-0.23071289062500,moving
184.02,3,0,3,3,3.8000,2.4900,0.5500,-22.8750,86.6250,-49.2500,0.60638427734375,-0.60772705078125,-0.45385742187500,-0.23883056640625,moving
184.03,3,0,3,3,3.9200,2.2800,-0.2400,-28.6250,88.6875,-57.5625,0.60711669921875,-0.60504150390625,-0.45159912109375,-0.24774169921875,moving
184.04,3,0,3,3,4.3400,2.7200,-1.6000,-32.0625,90.1250,-63.4375,0.60754394531250,-0.60223388671875,-0.44946289062500,-0.25714111328125,moving
184.05,3,0,3,3,4.5200,3.0900,-1.8300,-29.5625,85.5625,-69.1875,0.60778808593750,-0.59912109375000,-0.44793701171875,-0.26654052734375,moving
184.05,3,0,3,3,4.4800,3.2400,-1.8900,-28.9375,73.2500,-78.0000,0.60729980468750,-0.59582519531250,-0.44744873046875,-0.27563476562500,moving
184.06,3,0,3,3,4.5300,3.3800,-1.6700,-28.3750,56.5625,-88.4375,0.60583496093750,-0.59246826171875,-0.44836425781250,-0.28442382812500,moving
184.08,3,0,3,3,4.2200,2.9900,-1.1400,-26.8125,45.6875,-98.6250,0.60375976562500,-0.58886718750000,-0.45037841796875,-0.29309082031250,moving
184.09,3,0,3,3,3.7100,2.3100,-0.0800,-28.6250,45.3750,-105.0625,0.60131835937500,-0.58502197265625,-0.45269775390625,-0.30212402343750,moving
184.10,3,0,3,3,3.3700,1.7100,0.9200,-34.7500,57.6250,-109.0000,0.59887695312500,-0.58093261718750,-0.45428466796875,-0.31219482421875,moving
184.11,3,0,3,3,2.2400,0.7400,1.5300,-40.5625,76.5625,-110.0000,0.59680175781250,-0.57653808593750,-0.45477294921875,-0.32342529296875,moving
184.12,3,0,3,3,1.5500,0.4600,1.8500,-41.8750,98.8750,-107.5000,0.59552001953125,-0.57153320312500,-0.45385742187500,-0.33569335937500,moving
184.13,3,0,3,3,0.5300,-0.5300,1.1100,-56.5000,113.1250,-103.9375,0.59405517578125,-0.56695556640625,-0.45147705078125,-0.34899902343750,moving
184.13,3,0,3,3,-0.6600,-1.2300,-0.0100,-68.6875,121.8750,-101.6875,0.59228515625000,-0.56268310546875,-0.44805908203125,-0.36297607421875,moving
184.14,3,0,3,3,-2.9300,-2.9000,-0.9100,-67.2500,122.3750,-98.9375,0.59057617187500,-0.55834960937500,-0.44445800781250,-0.37677001953125,moving
184.15,3,0,3,3,-2.9300,-2.9000,-0.9100,-67.2500,122.3750,-98.9375,0.59057617187500,-0.55834960937500,-0.44445800781250,-0.37677001953125,moving
184.16,3,0,3,3,-3.8500,-4.2700,-1.0900,-65.3125,115.9375,-97.1250,0.58862304687500,-0.55401611328125,-0.44104003906250,-0.38995361328125,moving
184.17,3,0,3,3,-4.4100,-5.0000,-1.7200,-60.5000,110.3125,-99.4375,0.58648681640625,-0.54949951171875,-0.43811035156250,-0.40270996093750,moving
184.18,3,0,3,3,-5.1300,-5.3600,-2.6700,-51.2500,97.3750,-101.0625,0.58410644531250,-0.54473876953125,-0.43615722656250,-0.41448974609375,moving
184.19,3,0,3,3,-5.6500,-5.8600,-3.5700,-28.8750,81.6875,-97.2500,0.58227539062500,-0.53948974609375,-0.43554687500000,-0.42443847656250,moving
184.20,3,0,3,3,-6.4500,-6.0100,-3.8700,-1.4375,65.3750,-83.7500,0.58160400390625,-0.53393554687500,-0.43615722656250,-0.43182373046875,moving
184.21,3,0,3,3,-8.0200,-7.9800,-5.6100,32.5625,38.7500,-61.4375,0.58221435546875,-0.52844238281250,-0.43829345703125,-0.43554687500000,moving
184.22,3,0,3,3,-7.8700,-10.1600,-6.5700,80.9375,-19.6250,-52.4375,0.58319091796875,-0.52301025390625,-0.44476318359375,-0.43420410156250,moving
184.23,3,0,3,3,-6.7600,-9.4900,-6.8200,114.3750,-89.0000,-56.8125,0.58276367187500,-0.51831054687500,-0.45617675781250,-0.42852783203125,moving
184.24,3,0,3,3,-5.6700,-7.8300,-6.2200,116.4375,-80.8750,-51.6875,0.58282470703125,-0.51336669921875,-0.46691894531250,-0.42285156250000,moving
184.26,3,0,3,3,-3.1700,-4.1800,-1.8800,30.1250,-30.9375,-20.0625,0.58258056640625,-0.50793457031250,-0.47796630859375,-0.41729736328125,moving
184.27,3,0,3,3,-1.8700,-3.5000,-1.3600,-21.1250,-14.8125,-0.1250,0.58105468750000,-0.50958251953125,-0.47796630859375,-0.41748046875000,moving
184.28,3,0,3,3,-0.3700,-3.2600,-0.6800,-56.7500,-5.2500,20.9375,0.57904052734375,-0.51354980468750,-0.47521972656250,-0.41851806640625,moving
184.29,3,0,3,3,1.5200,-4.0800,0.2400,-78.7500,-1.6250,47.9375,0.57714843750000,-0.51959228515625,-0.47027587890625,-0.41925048828125,moving
184.30,3,0,3,3,1.9300,-4.9600,1.0700,-56.4375,0.0000,66.5625,0.57702636718750,-0.52514648437500,-0.46514892578125,-0.41815185546875,moving
184.31,3,0,3,3,2.1800,-5.6000,2.3100,-17.1875,-19.6875,73.5000,0.57812500000000,-0.52978515625000,-0.46215820312500,-0.41418457031250,moving
184.32,3,0,3,3,1.5700,-6.4700,1.4600,2.3750,-36.3125,69.6875,0.57928466796875,-0.53381347656250,-0.46081542968750,-0.40887451171875,moving
184.33,3,0,3,3,0.1400,-7.2700,0.0000,24.8750,-26.8125,70.1250,0.58184814453125,-0.53631591796875,-0.45977783203125,-0.40301513671875,moving
184.34,3,0,3,3,-0.8000,-7.1400,-0.3200,42.5625,-21.8125,73.4375,0.58557128906250,-0.53790283203125,-0.45886230468750,-0.39654541015625,moving
184.35,3,0,3,3,-1.5600,-6.8800,-0.4000,48.8750,-33.5000,82.5625,0.58935546875000,-0.53985595703125,-0.45837402343750,-0.38873291015625,moving
184.36,3,0,3,3,-1.2800,-5.3400,-0.1600,44.5000,-43.4375,91.8750,0.59277343750000,-0.54278564453125,-0.45776367187500,-0.38012695312500,moving
184.37,3,0,3,3,-0.9400,-4.1900,0.2300,40.3125,-44.1250,98.5000,0.59619140625000,-0.54608154296875,-0.45666503906250,-0.37121582031250,moving
184.38,3,0,3,3,-0.6200,-3.0400,0.5200,41.5625,-48.5000,102.0625,0.59954833984375,-0.54956054687500,-0.45556640625000,-0.36187744140625,moving
184.39,3,0,3,3,-0.2700,-1.8000,0.6200,49.5000,-54.1250,102.0625,0.60296630859375,-0.55273437500000,-0.45501708984375,-0.35192871093750,moving
184.40,3,0,3,3,-0.2700,0.1000,0.6400,57.3750,-54.1250,100.0000,0.60662841796875,-0.55535888671875,-0.45477294921875,-0.34167480468750,moving
184.41,3,0,3,3,-0.3400,1.1000,0.7100,63.8750,-54.0625,99.3750,0.61053466796875,-0.55755615234375,-0.45465087890625,-0.33117675781250,moving
184.41,3,0,3,3,-0.3400,1.1000,0.7100,63.8750,-54.0625,99.3750,0.61053466796875,-0.55755615234375,-0.45465087890625,-0.33117675781250,moving
184.42,3,0,3,3,-0.4800,1.7800,0.4800,61.2500,-51.8750,98.7500,0.61431884765625,-0.55969238281250,-0.45428466796875,-0.32092285156250,moving
184.43,3,0,3,3,-0.3900,2.3200,0.3500,49.1875,-45.3125,98.0000,0.61761474609375,-0.56225585937500,-0.45324707031250,-0.31146240234375,moving
184.44,3,0,3,3,-0.0600,3.2600,-0.0600,28.1250,-39.0625,95.8125,0.62005615234375,-0.56555175781250,-0.45135498046875,-0.30316162109375,moving
184.45,3,0,3,3,0.4200,3.9500,-0.5000,1.8750,-40.4375,87.2500,0.62084960937500,-0.57000732421875,-0.44927978515625,-0.29632568359375,moving
184.46,3,0,3,3,1.2500,4.9500,-0.7700,-19.1250,-48.5000,73.4375,0.61987304687500,-0.57513427734375,-0.44769287109375,-0.29064941406250,moving
184.47,3,0,3,3,3.3200,8.0200,-1.1800,-31.0000,-63.4375,57.2500,0.61730957031250,-0.58068847656250,-0.44744873046875,-0.28552246093750,moving
184.48,3,0,3,3,4.3900,9.0200,-1.6100,-33.5625,-82.5625,36.8750,0.61328125000000,-0.58599853515625,-0.44915771484375,-0.28063964843750,moving
184.49,3,0,3,3,3.7700,9.3800,-1.2600,-4.6250,-90.7500,32.5625,0.61029052734375,-0.58972167968750,-0.45214843750000,-0.27441406250000,moving
184.50,3,0,3,3,2.6100,8.2000,-0.0600,30.5000,-80.6875,32.0625,0.60943603515625,-0.59130859375000,-0.45550537109375,-0.26733398437500,moving
184.51,3,0,3,3,1.8500,4.5400,2.3700,41.1250,-55.0000,17.3125,0.60974121093750,-0.59106445312500,-0.45849609375000,-0.26190185546875,moving
184.52,3,0,3,3,2.1000,3.4000,2.7500,33.1875,-32.7500,12.2500,0.61041259765625,-0.59057617187500,-0.46038818359375,-0.25823974609375,moving
184.53,3,0,3,3,2.3700,2.5300,2.4400,14.6250,-15.1875,13.1875,0.61083984375000,-0.59063720703125,-0.46081542968750,-0.25610351562500,moving
184.54,3,0,3,3,2.9200,2.1400,1.7400,0.3750,9.4375,12.6875,0.61151123046875,-0.59094238281250,-0.45965576171875,-0.25592041015625,moving
184.55,3,0,3,3,2.9800,1.4800,0.8800,-1.8125,37.0000,10.8125,0.61315917968750,-0.59063720703125,-0.45709228515625,-0.25732421875000,moving
184.56,3,0,3,3,2.6800,1.4300,0.1900,-3.3750,50.7500,8.1250,0.61517333984375,-0.59002685546875,-0.45385742187500,-0.25964355468750,moving
184.58,3,0,3,3,1.0800,0.9400,-0.7900,-6.5000,60.4375,3.2500,0.61920166015625,-0.58843994140625,-0.44677734375000,-0.26593017578125,moving
184.59,3,0,3,3,0.1500,0.4300,-0.7600,-2.5625,56.9375,4.0000,0.62139892578125,-0.58740234375000,-0.44348144531250,-0.26873779296875,moving
184.60,3,0,3,3,-0.3200,0.1600,-0.8900,-0.3125,54.1250,7.1875,0.62365722656250,-0.58636474609375,-0.44012451171875,-0.27111816406250,moving
184.61,3,0,3,3,-0.7900,-0.0600,-1.0700,2.8125,48.0000,6.8125,0.62579345703125,-0.58532714843750,-0.43725585937500,-0.27313232421875,moving
184.62,3,0,3,3,-0.9100,0.0300,-1.2600,6.5625,36.3750,3.5625,0.62756347656250,-0.58422851562500,-0.43524169921875,-0.27453613281250,moving
184.63,3,0,3,3,-0.8300,0.3500,-0.9800,8.3750,24.8750,0.5000,0.62896728515625,-0.58319091796875,-0.43408203125000,-0.27551269531250,moving
184.64,3,0,3,3,-0.6600,0.6400,-0.5900,6.5000,15.7500,-0.7500,0.62982177734375,-0.58239746093750,-0.43341064453125,-0.27612304687500,moving
184.65,3,0,3,3,-0.4900,0.9100,-0.1600,5.0625,8.6875,-2.3750,0.63037109375000,-0.58184814453125,-0.43322753906250,-0.27648925781250,moving
184.66,3,0,3,3,-0.2000,1.0600,0.3500,2.6250,6.6875,-4.6250,0.63061523437500,-0.58135986328125,-0.43316650390625,-0.27697753906250,moving
184.66,3,0,3,3,-0.2000,1.0600,0.3500,2.6250,6.6875,-4.6250,0.63061523437500,-0.58135986328125,-0.43316650390625,-0.27697753906250,moving
184.67,3,0,3,3,-0.2000,1.0800,0.2200,-1.4375,8.5625,-6.3750,0.63073730468750,-0.58093261718750,-0.43298339843750,-0.27783203125000,moving
184.68,3,0,3,3,-0.1500,1.1000,0.0700,-3.6875,12.4375,-7.1875,0.63085937500000,-0.58056640625000,-0.43255615234375,-0.27899169921875,moving
184.69,3,0,3,3,-0.1700,1.0000,-0.1700,-4.5000,15.5625,-6.9375,0.63104248046875,-0.58020019531250,-0.43194580078125,-0.28039550781250,moving
184.70,3,0,3,3,-0.0600,0.7600,-0.3700,-5.5000,15.4375,-6.0625,0.63116455078125,-0.57989501953125,-0.43127441406250,-0.28167724609375,moving
184.71,3,0,3,3,-0.0600,0.5500,-0.5000,-6.6875,15.8125,-6.1250,0.63122558593750,-0.57965087890625,-0.43060302734375,-0.28308105468750,moving
184.72,3,0,3,3,-0.1700,0.3400,-0.4900,-5.9375,15.0000,-6.3125,0.63134765625000,-0.57934570312500,-0.42993164062500,-0.28442382812500,moving
184.73,3,0,3,3,-0.1100,-0.0800,-0.4200,-5.1875,13.5000,-6.0625,0.63146972656250,-0.57904052734375,-0.42938232421875,-0.28564453125000,moving
184.74,3,0,3,3,-0.0900,-0.1500,-0.2900,-3.0000,14.7500,-6.1250,0.63165283203125,-0.57861328125000,-0.42883300781250,-0.28686523437500,moving
184.75,3,0,3,3,-0.1000,-0.1400,-0.3400,-2.5625,14.3125,-5.7500,0.63195800781250,-0.57818603515625,-0.42822265625000,-0.28802490234375,moving
184.76,3,0,3,3,-0.1400,-0.1600,-0.3600,-2.0625,16.0000,-5.8750,0.63226318359375,-0.57769775390625,-0.42761230468750,-0.28924560546875,moving
184.77,3,0,3,3,-0.3500,-0.2300,-0.2600,-0.9375,18.1875,-6.4375,0.63275146484375,-0.57702636718750,-0.42694091796875,-0.29058837890625,moving
184.78,3,0,3,3,-0.5000,-0.2900,-0.1900,-1.0000,20.1875,-6.6875,0.63323974609375,-0.57629394531250,-0.42614746093750,-0.29199218750000,moving
184.79,3,0,3,3,-0.6100,-0.2500,-0.1200,0.0625,22.1250,-6.3125,0.63391113281250,-0.57550048828125,-0.42523193359375,-0.29345703125000,moving
184.80,3,0,3,3,-0.5600,-0.3600,-0.0400,0.7500,23.1875,-6.0625,0.63464355468750,-0.57464599609375,-0.42431640625000,-0.29492187500000,moving
184.81,3,0,3,3,-0.6300,-0.2800,-0.0800,0.9375,23.0000,-6.3125,0.63537597656250,-0.57379150390625,-0.42333984375000,-0.29638671875000,moving
184.82,3,0,3,3,-0.5900,-0.3100,-0.2800,0.7500,21.8750,-6.4375,0.63604736328125,-0.57293701171875,-0.42248535156250,-0.29785156250000,moving
184.83,3,0,3,3,-0.6000,-0.1900,-0.4500,2.1875,21.0000,-5.7500,0.63677978515625,-0.57202148437500,-0.42169189453125,-0.29913330078125,moving
184.84,3,0,3,3,-0.6800,0.3100,0.0100,3.6875,19.0625,-6.5000,0.63299560546875,-0.59606933593750,-0.41156005859375,-0.27319335937500,moving
184.85,3,0,3,3,-0.6600,0.2800,0.0000,3.2500,15.2500,-6.5625,0.63354492187500,-0.59527587890625,-0.41113281250000,-0.27423095703125,moving
184.86,3,0,3,3,-0.6000,0.2600,-0.0600,2.7500,11.0625,-6.1875,0.63391113281250,-0.59466552734375,-0.41094970703125,-0.27508544921875,moving
184.87,3,0,3,3,-0.4700,0.1900,-0.0500,3.5000,8.0625,-6.5000,0.63421630859375,-0.59405517578125,-0.41094970703125,-0.27569580078125,moving
184.88,3,0,3,3,-0.5000,0.2000,0.0300,4.3750,5.4375,-6.3125,0.63452148437500,-0.59344482421875,-0.41107177734375,-0.27618408203125,moving
184.90,3,0,3,3,-0.3600,0.1000,0.1900,5.3125,2.5625,-4.7500,0.63507080078125,-0.59228515625000,-0.41143798828125,-0.27673339843750,moving
184.91,3,0,3,3,-0.2200,0.2800,0.3300,5.6875,0.8125,-4.0000,0.63531494140625,-0.59179687500000,-0.41174316406250,-0.27679443359375,moving
184.92,3,0,3,3,-0.1600,0.3000,0.3400,6.0625,0.0000,-3.5625,0.63555908203125,-0.59136962890625,-0.41204833984375,-0.27679443359375,stop
184.93,3,0,3,3,-0.1100,0.3500,0.3900,6.3750,-0.1250,-3.4375,0.63580322265625,-0.59088134765625,-0.41241455078125,-0.27673339843750,stop
184.94,3,0,3,3,-0.1000,0.3100,0.3400,5.9375,0.5000,-3.3750,0.63598632812500,-0.59039306640625,-0.41271972656250,-0.27673339843750,stop
184.95,3,0,3,3,-0.1200,0.3400,0.3400,5.8125,1.5625,-3.1250,0.63629150390625,-0.58990478515625,-0.41296386718750,-0.27673339843750,stop
184.96,3,0,3,3,-0.0900,0.3500,0.3100,5.5000,2.0000,-2.6250,0.63653564453125,-0.58947753906250,-0.41314697265625,-0.27679443359375,stop
184.97,3,0,3,3,-0.0500,0.3500,0.2600,5.3125,3.0000,-2.3750,0.63696289062500,-0.58886718750000,-0.41320800781250,-0.27709960937500,stop
184.98,3,0,3,3,-0.1900,0.4500,0.2600,5.7500,3.5000,-1.8750,0.63739013671875,-0.58819580078125,-0.41333007812500,-0.27734375000000,stop
184.99,3,0,3,3,-0.1700,0.4500,0.3200,6.0000,3.0625,-1.5625,0.63787841796875,-0.58752441406250,-0.41339111328125,-0.27758789062500,stop
185.00,3,0,3,3,-0.0900,0.4300,0.3000,5.0000,1.5625,-1.2500,0.63824462890625,-0.58691406250000,-0.41357421875000,-0.27777099609375,stop
185.01,3,0,3,3,-0.0900,0.4000,0.2800,4.1875,0.8750,-1.0625,0.63854980468750,-0.58642578125000,-0.41369628906250,-0.27789306640625,stop
185.02,3,0,3,3,-0.1700,0.3800,0.2600,3.8750,0.5625,-0.8750,0.63879394531250,-0.58599853515625,-0.41387939453125,-0.27807617187500,stop
185.03,3,0,3,3,-0.1500,0.3700,0.1700,3.9375,0.1250,-0.6250,0.63903808593750,-0.58557128906250,-0.41400146484375,-0.27807617187500,stop
185.04,3,0,3,3,-0.1200,0.4100,0.1800,4.5625,-0.1250,-0.5000,0.63928222656250,-0.58520507812500,-0.41418457031250,-0.27807617187500,stop
185.05,3,0,3,3,-0.1000,0.4600,0.1900,4.6250,-1.5000,-0.5625,0.63946533203125,-0.58477783203125,-0.41448974609375,-0.27807617187500,stop
185.06,3,0,3,3,-0.1200,0.4900,0.2500,4.2500,-2.2500,-0.2500,0.63964843750000,-0.58441162109375,-0.41479492187500,-0.27801513671875,stop
185.07,3,0,3,3,-0.1100,0.5200,0.2500,3.5625,-2.6875,-0.0625,0.63977050781250,-0.58404541015625,-0.41516113281250,-0.27801513671875,stop
185.08,3,0,3,3,-0.0500,0.5500,0.3400,3.6250,-2.9375,-0.1250,0.63989257812500,-0.58361816406250,-0.41552734375000,-0.27801513671875,stop
185.09,3,0,3,3,0.0700,0.5800,0.3600,3.3125,-3.1250,-0.1875,0.64001464843750,-0.58306884765625,-0.41589355468750,-0.27819824218750,stop
185.10,3,0,3,3,0.0900,0.5900,0.3800,2.6250,-2.6250,-0.1250,0.64019775390625,-0.58251953125000,-0.41632080078125,-0.27844238281250,stop
185.11,3,0,3,3,0.0400,0.5900,0.4000,2.0000,-1.1250,-0.2500,0.64031982421875,-0.58190917968750,-0.41662597656250,-0.27886962890625,stop
185.12,3,0,3,3,0.0000,0.6000,0.3200,1.3125,-0.0625,-0.2500,0.64050292968750,-0.58135986328125,-0.41680908203125,-0.27935791015625,stop
185.13,3,0,3,3,0.0000,0.5700,0.2700,1.3750,0.7500,-0.1875,0.64068603515625,-0.58081054687500,-0.41699218750000,-0.27984619140625,stop
185.14,3,0,3,3,0.0400,0.5600,0.2000,1.0000,1.0000,-0.3125,0.64080810546875,-0.58032226562500,-0.41717529296875,-0.28033447265625,stop
185.15,3,0,3,3,-0.0200,0.6000,0.1600,0.7500,1.5625,-0.4375,0.64086914062500,-0.57989501953125,-0.41735839843750,-0.28076171875000,stop
185.16,3,0,3,3,-0.0500,0.5700,0.1400,0.3125,1.8750,-0.3750,0.64093017578125,-0.57958984375000,-0.41741943359375,-0.28125000000000,stop
185.17,3,0,3,3,-0.0200,0.5100,0.1100,-0.3750,1.9375,-0.3125,0.64093017578125,-0.57928466796875,-0.41754150390625,-0.28167724609375,stop
185.18,3,0,3,3,-0.0700,0.5800,0.0900,-1.0000,1.6875,-0.2500,0.64086914062500,-0.57904052734375,-0.41760253906250,-0.28210449218750,stop
185.19,3,0,3,3,-0.0600,0.6000,0.1100,-0.9375,1.0000,-0.5000,0.64080810546875,-0.57885742187500,-0.41772460937500,-0.28247070312500,stop
185.20,3,0,3,3,-0.0700,0.5800,0.1400,-1.0625,-0.0625,-0.7500,0.64068603515625,-0.57861328125000,-0.41790771484375,-0.28289794921875,stop
185.22,3,0,3,3,-0.1000,0.4600,0.1800,-1.9375,-1.5625,-1.0625,0.64031982421875,-0.57830810546875,-0.41845703125000,-0.28356933593750,stop
185.23,3,0,3,3,-0.1600,0.3700,0.3200,-2.0625,-1.8125,-0.9375,0.64019775390625,-0.57824707031250,-0.41864013671875,-0.28387451171875,stop
185.24,3,0,3,3,-0.1600,0.2300,0.4700,-2.2500,-1.8750,-0.5625,0.64007568359375,-0.57818603515625,-0.41870117187500,-0.28405761718750,stop
185.25,3,0,3,3,-0.1300,0.2600,0.4900,-1.8750,-0.5625,-0.5000,0.63995361328125,-0.57824707031250,-0.41870117187500,-0.28411865234375,stop
185.26,3,0,3,3,-0.1300,0.2600,0.4400,-1.6250,0.6250,-0.5625,0.63989257812500,-0.57830810546875,-0.41864013671875,-0.28424072265625,stop
185.27,3,0,3,3,-0.1800,0.3000,0.3500,-1.0000,1.9375,-0.6250,0.63989257812500,-0.57830810546875,-0.41857910156250,-0.28442382812500,stop
185.28,3,0,3,3,-0.2200,0.3200,0.2500,-0.6250,2.1875,-0.6875,0.63989257812500,-0.57824707031250,-0.41845703125000,-0.28466796875000,stop
185.29,3,0,3,3,-0.2500,0.3300,0.2400,-0.6875,0.8750,-0.6875,0.63995361328125,-0.57812500000000,-0.41839599609375,-0.28485107421875,stop
185.30,3,0,3,3,-0.2200,0.3300,0.1900,-0.5625,-0.0625,-0.5625,0.64001464843750,-0.57800292968750,-0.41845703125000,-0.28503417968750,stop
185.31,3,0,3,3,-0.1100,0.3900,0.1900,-0.5625,-1.1250,-0.4375,0.63995361328125,-0.57788085937500,-0.41851806640625,-0.28515625000000,stop
185.32,3,0,3,3,-0.0200,0.4300,0.2200,-0.3750,-1.8750,-0.5625,0.63995361328125,-0.57775878906250,-0.41870117187500,-0.28527832031250,stop
185.33,3,0,3,3,0.0200,0.4000,0.2300,-0.0625,-2.2500,-0.5000,0.63989257812500,-0.57763671875000,-0.41888427734375,-0.28533935546875,stop
185.34,3,0,3,3,0.0500,0.4000,0.3000,-0.2500,-2.2500,-0.6250,0.63983154296875,-0.57739257812500,-0.41912841796875,-0.28552246093750,stop
185.35,3,0,3,3,-0.0300,0.4300,0.3300,-0.2500,-1.5000,-0.6875,0.63983154296875,-0.57714843750000,-0.41931152343750,-0.28576660156250,stop
185.36,3,0,3,3,-0.0700,0.4200,0.3300,-0.1875,-0.5625,-0.8750,0.63989257812500,-0.57684326171875,-0.41949462890625,-0.28607177734375,stop
185.37,3,0,3,3,-0.1300,0.3900,0.3100,-0.3750,0.1250,-0.8750,0.63995361328125,-0.57653808593750,-0.41955566406250,-0.28637695312500,stop
185.38,3,0,3,3,-0.1700,0.3800,0.2600,-0.4375,0.3125,-1.0000,0.64001464843750,-0.57623291015625,-0.41967773437500,-0.28668212890625,stop
185.39,3,0,3,3,-0.1700,0.3400,0.2900,-0.8125,0.0000,-1.2500,0.64001464843750,-0.57604980468750,-0.41973876953125,-0.28698730468750,stop
185.40,3,0,3,3,-0.2000,0.3200,0.3100,-0.8750,0.0000,-1.3125,0.64001464843750,-0.57586669921875,-0.41973876953125,-0.28723144531250,stop
185.41,3,0,3,3,-0.2300,0.3100,0.3000,-0.9375,-0.2500,-1.3125,0.64007568359375,-0.57574462890625,-0.41979980468750,-0.28747558593750,stop
185.42,3,0,3,3,-0.1500,0.2800,0.2100,-0.7500,-0.3750,-1.0625,0.64007568359375,-0.57556152343750,-0.41986083984375,-0.28771972656250,stop
185.43,3,0,3,3,-0.1300,0.2500,0.2200,-0.4375,-0.5625,-0.9375,0.64007568359375,-0.57543945312500,-0.41992187500000,-0.28784179687500,stop
185.44,3,0,3,3,-0.1200,0.2200,0.2200,-0.1875,-0.8750,-1.0000,0.64007568359375,-0.57531738281250,-0.42004394531250,-0.28790283203125,stop
185.45,3,0,3,3,-0.1000,0.2300,0.2200,0.0000,-0.9375,-0.7500,0.64007568359375,-0.57525634765625,-0.42010498046875,-0.28802490234375,stop
185.46,3,0,3,3,-0.1500,0.3100,0.2600,0.3750,-0.4375,-0.6250,0.64007568359375,-0.57507324218750,-0.42016601562500,-0.28814697265625,stop
185.47,3,0,3,3,-0.1300,0.3100,0.2200,0.0625,-0.8750,-0.5000,0.64013671875000,-0.57501220703125,-0.42022705078125,-0.28820800781250,stop
185.48,3,0,3,3,-0.1000,0.3200,0.2000,0.2500,-0.5625,-0.3125,0.64013671875000,-0.57489013671875,-0.42028808593750,-0.28833007812500,stop
185.49,3,0,3,3,-0.1200,0.3700,0.1900,0.2500,-0.0625,-0.1250,0.64019775390625,-0.57470703125000,-0.42028808593750,-0.28845214843750,stop
185.50,3,0,3,3,-0.0900,0.3900,0.2000,0.0000,0.0000,0.0000,0.64019775390625,-0.57458496093750,-0.42034912109375,-0.28863525390625,stop
185.51,3,0,3,3,-0.1000,0.4200,0.2100,-0.1250,0.5000,0.0000,0.64025878906250,-0.57440185546875,-0.42041015625000,-0.28875732421875,stop
185.52,3,0,3,3,-0.1400,0.4300,0.1900,-0.7500,0.6875,0.0000,0.64025878906250,-0.57427978515625,-0.42041015625000,-0.28906250000000,stop
185.54,3,0,3,3,-0.1900,0.3300,0.1700,-1.5625,0.4375,-0.2500,0.64019775390625,-0.57409667968750,-0.42034912109375,-0.28948974609375,stop
185.55,3,0,3,3,-0.1500,0.3300,0.1600,-1.5000,0.0625,-0.1875,0.64013671875000,-0.57409667968750,-0.42034912109375,-0.28967285156250,stop
185.56,3,0,3,3,-0.1700,0.3500,0.1300,-1.5625,-0.3125,-0.3125,0.64007568359375,-0.57409667968750,-0.42034912109375,-0.28979492187500,stop
185.57,3,0,3,3,-0.1500,0.3000,0.1300,-1.5625,-1.0000,-0.4375,0.64001464843750,-0.57409667968750,-0.42041015625000,-0.28991699218750,stop
185.58,3,0,3,3,-0.1300,0.2700,0.1800,-1.5000,-1.6875,-0.2500,0.63989257812500,-0.57415771484375,-0.42047119140625,-0.28997802734375,stop
185.59,3,0,3,3,-0.1400,0.2900,0.2600,-1.4375,-1.7500,-0.1875,0.63977050781250,-0.57415771484375,-0.42059326171875,-0.29003906250000,stop
185.60,3,0,3,3,-0.1400,0.2600,0.3400,-1.1250,-1.3750,0.0000,0.63977050781250,-0.57409667968750,-0.42059326171875,-0.29016113281250,stop
185.61,3,0,3,3,-0.1300,0.2600,0.3100,-0.8125,-0.5000,0.0000,0.63983154296875,-0.57403564453125,-0.42059326171875,-0.29028320312500,stop
185.62,3,0,3,3,-0.1500,0.2800,0.2600,-0.8125,0.0625,0.0000,0.63983154296875,-0.57391357421875,-0.42053222656250,-0.29046630859375,stop
185.63,3,0,3,3,-0.1700,0.2700,0.2100,-1.1250,0.3125,0.0625,0.63983154296875,-0.57385253906250,-0.42053222656250,-0.29058837890625,stop
185.64,3,0,3,3,-0.2200,0.2200,0.2000,-1.1250,0.3125,0.1250,0.63983154296875,-0.57385253906250,-0.42047119140625,-0.29071044921875,stop
185.65,3,0,3,3,-0.2100,0.2300,0.1700,-1.2500,-0.1875,0.3750,0.63983154296875,-0.57385253906250,-0.42047119140625,-0.29083251953125,stop
185.66,3,0,3,3,-0.1700,0.2100,0.2200,-1.3125,-0.3750,0.3750,0.63977050781250,-0.57385253906250,-0.42041015625000,-0.29095458984375,stop
185.67,3,0,3,3,-0.1500,0.2300,0.2100,-1.2500,-0.2500,0.5000,0.63977050781250,-0.57385253906250,-0.42034912109375,-0.29107666015625,stop
185.68,3,0,3,3,-0.0200,0.2700,0.1300,-1.4375,-0.1250,0.6250,0.63970947265625,-0.57385253906250,-0.42028808593750,-0.29113769531250,stop
185.69,3,0,3,3,-0.0600,0.2800,0.1200,-1.0625,0.3125,0.4375,0.63970947265625,-0.57385253906250,-0.42028808593750,-0.29125976562500,stop
185.70,3,0,3,3,-0.1300,0.3700,0.1400,-0.6875,-0.1250,0.2500,0.63970947265625,-0.57379150390625,-0.42034912109375,-0.29144287109375,stop
185.71,3,0,3,3,-0.1800,0.3500,0.0900,-1.0000,-0.0625,0.3125,0.63964843750000,-0.57373046875000,-0.42034912109375,-0.29156494140625,stop
185.72,3,0,3,3,-0.2000,0.3300,0.0900,-0.6875,0.1875,0.3125,0.63958740234375,-0.57366943359375,-0.42034912109375,-0.29168701171875,stop
185.73,3,0,3,3,-0.1900,0.3000,0.0700,-0.6875,-0.0625,0.5000,0.63958740234375,-0.57366943359375,-0.42034912109375,-0.29174804687500,stop
185.74,3,0,3,3,-0.1400,0.3000,0.0700,-0.7500,-0.0625,0.6250,0.63958740234375,-0.57366943359375,-0.42034912109375,-0.29180908203125,stop
185.75,3,0,3,3,-0.0600,0.3700,0.1100,-0.8750,-0.3125,0.4375,0.63952636718750,-0.57366943359375,-0.42034912109375,-0.29193115234375,stop
185.76,3,0,3,3,-0.0100,0.3900,0.0800,-0.9375,-0.1250,0.2500,0.63946533203125,-0.57360839843750,-0.42041015625000,-0.29211425781250,stop
185.77,3,0,3,3,-0.0300,0.4100,0.0600,-1.1250,0.0000,0.1875,0.63934326171875,-0.57354736328125,-0.42047119140625,-0.29229736328125,stop
185.78,3,0,3,3,-0.0900,0.4000,0.0400,-1.1875,0.6250,0.0625,0.63928222656250,-0.57348632812500,-0.42047119140625,-0.29254150390625,stop
185.79,3,0,3,3,-0.1600,0.3800,0.0600,-1.5000,0.5000,0.1250,0.63922119140625,-0.57348632812500,-0.42053222656250,-0.29266357421875,stop
185.80,3,0,3,3,-0.1700,0.3200,0.0400,-1.4375,0.3125,0.0000,0.63909912109375,-0.57348632812500,-0.42053222656250,-0.29284667968750,stop
185.81,3,0,3,3,-0.1900,0.3100,0.0800,-1.4375,0.1250,0.0000,0.63903808593750,-0.57354736328125,-0.42053222656250,-0.29296875000000,stop
185.82,3,0,3,3,-0.1100,0.3600,0.0500,-1.6250,-0.0625,-0.1875,0.63891601562500,-0.57354736328125,-0.42059326171875,-0.29309082031250,stop
185.83,3,0,3,3,-0.1200,0.3600,0.0700,-1.6250,-0.3750,-0.3750,0.63885498046875,-0.57354736328125,-0.42059326171875,-0.29327392578125,stop
185.86,3,0,3,3,-0.1300,0.3800,0.0700,-2.1250,-0.5000,-0.7500,0.63854980468750,-0.57360839843750,-0.42071533203125,-0.29370117187500,stop
185.86,3,0,3,3,-0.1900,0.3100,0.1000,-2.1250,-0.4375,-0.6875,0.63842773437500,-0.57360839843750,-0.42071533203125,-0.29388427734375,stop
185.87,3,0,3,3,-0.1900,0.3200,0.0900,-1.9375,-0.4375,-0.8750,0.63830566406250,-0.57360839843750,-0.42077636718750,-0.29412841796875,stop
185.88,3,0,3,3,-0.1500,0.3300,0.0600,-1.6250,-0.5000,-0.6875,0.63818359375000,-0.57360839843750,-0.42083740234375,-0.29431152343750,stop
185.89,3,0,3,3,-0.0900,0.3100,0.0900,-1.5000,-0.6875,-0.6875,0.63806152343750,-0.57360839843750,-0.42089843750000,-0.29443359375000,stop
185.90,3,0,3,3,-0.0700,0.3100,0.1200,-1.6250,-0.7500,-0.8125,0.63793945312500,-0.57360839843750,-0.42095947265625,-0.29455566406250,stop
185.91,3,0,3,3,-0.0700,0.3300,0.1700,-1.5000,-0.6250,-1.0000,0.63781738281250,-0.57354736328125,-0.42108154296875,-0.29479980468750,stop
185.92,3,0,3,3,-0.0700,0.3400,0.1700,-0.8750,-1.0000,-1.1875,0.63769531250000,-0.57348632812500,-0.42120361328125,-0.29492187500000,stop
185.93,3,0,3,3,-0.0300,0.3100,0.2200,-0.4375,-0.7500,-1.7500,0.63769531250000,-0.57330322265625,-0.42138671875000,-0.29516601562500,stop
185.94,3,0,3,3,-0.0900,0.2700,0.1900,-0.3750,0.0000,-2.0625,0.63763427734375,-0.57312011718750,-0.42150878906250,-0.29541015625000,stop
185.95,3,0,3,3,-0.1200,0.2300,0.1600,-0.5000,1.0625,-2.4375,0.63763427734375,-0.57287597656250,-0.42163085937500,-0.29565429687500,stop
185.96,3,0,3,3,-0.1500,0.2100,0.1600,-0.6250,1.8750,-2.9375,0.63763427734375,-0.57269287109375,-0.42163085937500,-0.29602050781250,stop
185.97,3,0,3,3,-0.1300,0.3300,0.0900,-0.5000,2.3125,-3.3125,0.63763427734375,-0.57244873046875,-0.42169189453125,-0.29638671875000,stop
185.98,3,0,3,3,-0.0900,0.3200,0.0500,-0.6250,1.6875,-3.8125,0.63757324218750,-0.57220458984375,-0.42181396484375,-0.29681396484375,stop
185.99,3,0,3,3,-0.0300,0.4000,0.0500,-0.6875,1.1250,-4.3125,0.63745117187500,-0.57202148437500,-0.42199707031250,-0.29724121093750,stop
186.00,3,0,3,3,-0.0900,0.4400,0.1500,-1.3750,0.7500,-4.8125,0.63726806640625,-0.57177734375000,-0.42224121093750,-0.29772949218750,stop
186.01,3,0,3,3,-0.1100,0.4300,0.1800,-2.0625,0.3750,-4.9375,0.63708496093750,-0.57153320312500,-0.42254638671875,-0.29827880859375,stop
186.02,3,0,3,3,-0.0300,0.3700,0.2300,-2.3125,1.0000,-4.6250,0.63690185546875,-0.57128906250000,-0.42272949218750,-0.29882812500000,stop
186.03,3,0,3,3,0.0200,0.3100,0.1700,-2.8125,1.5625,-4.5000,0.63671875000000,-0.57110595703125,-0.42285156250000,-0.29943847656250,stop
186.04,3,0,3,3,0.0500,0.3400,0.1700,-2.2500,2.8750,-4.6875,0.63659667968750,-0.57080078125000,-0.42291259765625,-0.30010986328125,stop
186.05,3,0,3,3,0.0000,0.2700,0.1500,-1.5625,3.9375,-5.3125,0.63653564453125,-0.57049560546875,-0.42297363281250,-0.30078125000000,stop
186.06,3,0,3,3,-0.0700,0.2000,0.0700,-1.6250,5.0625,-5.5000,0.63647460937500,-0.57012939453125,-0.42297363281250,-0.30151367187500,stop
186.07,3,0,3,3,-0.1300,0.1600,0.0000,-2.1875,6.1875,-5.8750,0.63647460937500,-0.56988525390625,-0.42285156250000,-0.30224609375000,stop
186.08,3,0,3,3,-0.2500,0.1200,-0.0400,-2.3750,5.8125,-6.1250,0.63641357421875,-0.56958007812500,-0.42279052734375,-0.30297851562500,stop
186.09,3,0,3,3,-0.1700,0.1600,0.0000,-2.5000,4.4375,-6.5625,0.63629150390625,-0.56933593750000,-0.42279052734375,-0.30371093750000,stop
186.10,3,0,3,3,-0.0500,0.2300,0.0800,-1.9375,2.5625,-7.0625,0.63604736328125,-0.56909179687500,-0.42297363281250,-0.30432128906250,stop
186.11,3,0,3,3,0.1100,0.3500,0.2900,-1.8125,1.7500,-7.6250,0.63586425781250,-0.56878662109375,-0.42321777343750,-0.30499267578125,stop
186.12,3,0,3,3,0.1500,0.2700,0.3300,-1.3750,1.6250,-8.5000,0.63568115234375,-0.56835937500000,-0.42358398437500,-0.30578613281250,stop
186.13,3,0,3,3,0.1900,0.2300,0.3100,-1.9375,3.1875,-9.6250,0.63543701171875,-0.56799316406250,-0.42382812500000,-0.30651855468750,stop
186.14,3,0,3,3,0.1300,0.1700,0.2600,-2.3125,6.7500,-10.6875,0.63531494140625,-0.56756591796875,-0.42388916015625,-0.30755615234375,stop
186.15,3,0,3,3,0.1400,0.0200,0.0100,-2.1875,11.2500,-11.0000,0.63531494140625,-0.56695556640625,-0.42376708984375,-0.30883789062500,stop
186.18,3,0,3,3,0.0000,0.2300,-0.4400,-3.2500,19.1250,-14.1875,0.63555908203125,-0.56536865234375,-0.42297363281250,-0.31231689453125,stop
186.18,3,0,3,3,-0.0600,0.2100,-0.6400,-3.8125,21.0000,-16.0625,0.63568115234375,-0.56439208984375,-0.42248535156250,-0.31439208984375,stop
186.19,3,0,3,3,-0.3000,0.3400,-0.9400,-5.8750,22.5000,-17.6875,0.63574218750000,-0.56341552734375,-0.42199707031250,-0.31671142578125,stop
186.20,3,0,3,3,-0.4500,0.3800,-0.9800,-7.1250,24.3750,-18.0000,0.63580322265625,-0.56250000000000,-0.42132568359375,-0.31915283203125,stop
186.21,3,0,3,3,-0.5100,0.3100,-0.9900,-8.1250,24.3750,-18.4375,0.63580322265625,-0.56158447265625,-0.42065429687500,-0.32171630859375,stop
186.22,3,0,3,3,-1.0200,0.1300,-1.0200,-10.0625,23.4375,-17.5625,0.63562011718750,-0.56079101562500,-0.41992187500000,-0.32421875000000,stop
186.23,3,0,3,3,-1.2900,-0.0400,-0.9100,-10.6250,23.2500,-16.0000,0.63549804687500,-0.56018066406250,-0.41912841796875,-0.32659912109375,stop
186.24,3,0,3,3,-1.4700,-0.3300,-1.1200,-12.1875,22.6250,-13.5000,0.63537597656250,-0.55969238281250,-0.41815185546875,-0.32891845703125,stop
186.25,3,0,3,3,-1.5800,-0.5700,-1.2000,-14.8125,17.5000,-12.6250,0.63488769531250,-0.55950927734375,-0.41741943359375,-0.33105468750000,stop
186.26,3,0,3,3,-2.0400,-0.9600,-1.6000,-16.5000,12.7500,-11.1875,0.63421630859375,-0.55969238281250,-0.41674804687500,-0.33288574218750,stop
186.27,3,0,3,3,-2.2400,-1.2100,-1.7700,-17.0625,8.7500,-8.0000,0.63348388671875,-0.56005859375000,-0.41619873046875,-0.33441162109375,stop
186.28,3,0,3,3,-2.3500,-1.5400,-1.8800,-17.3750,4.4375,-3.6250,0.63269042968750,-0.56079101562500,-0.41558837890625,-0.33544921875000,stop
186.29,3,0,3,3,-2.4500,-1.8200,-1.9700,-18.5000,-2.3125,1.5000,0.63171386718750,-0.56188964843750,-0.41510009765625,-0.33587646484375,stop
186.30,3,0,3,3,-2.6100,-2.3400,-1.9300,-18.6250,-10.0000,5.8125,0.63061523437500,-0.56347656250000,-0.41485595703125,-0.33575439453125,stop
186.31,3,0,3,3,-2.6500,-2.3900,-1.8500,-17.7500,-18.1875,9.8125,0.62939453125000,-0.56530761718750,-0.41485595703125,-0.33496093750000,stop
186.32,3,0,3,3,-2.6900,-2.4200,-1.7100,-17.1250,-24.7500,14.8750,0.62805175781250,-0.56756591796875,-0.41497802734375,-0.33355712890625,stop
186.33,3,0,3,3,-2.7900,-2.4400,-1.4800,-15.3750,-28.5000,20.7500,0.62683105468750,-0.56994628906250,-0.41503906250000,-0.33154296875000,stop
186.34,3,0,3,3,-2.9900,-2.3400,-1.4200,-13.3125,-33.0625,26.3750,0.62573242187500,-0.57263183593750,-0.41516113281250,-0.32891845703125,stop
186.35,3,0,3,3,-3.2900,-2.2000,-1.3400,-10.0625,-37.1875,32.2500,0.62481689453125,-0.57543945312500,-0.41528320312500,-0.32562255859375,stop
186.36,3,0,3,3,-3.5500,-2.0200,-1.3000,-5.8125,-41.2500,37.6250,0.62408447265625,-0.57830810546875,-0.41546630859375,-0.32171630859375,stop
186.37,3,0,3,3,-3.9700,-1.6900,-1.2000,-1.1250,-48.3750,42.7500,0.62347412109375,-0.58129882812500,-0.41589355468750,-0.31695556640625,stop
186.38,3,0,3,3,-4.0200,-1.4800,-1.0600,3.2500,-59.9375,48.0625,0.62274169921875,-0.58447265625000,-0.41680908203125,-0.31115722656250,stop
186.39,3,0,3,3,-4.0100,-1.4000,-0.9900,7.0000,-70.9375,53.5000,0.62194824218750,-0.58801269531250,-0.41809082031250,-0.30432128906250,stop
186.40,3,0,3,3,-3.7300,-1.4400,-0.9000,9.8125,-80.1250,58.3125,0.62109375000000,-0.59173583984375,-0.41967773437500,-0.29663085937500,stop
186.41,3,0,3,3,-2.8700,-1.2300,-0.8200,12.1875,-88.1250,61.6250,0.62005615234375,-0.59558105468750,-0.42156982421875,-0.28826904296875,stop
186.42,3,0,3,3,-2.5400,-0.8600,-0.5300,14.7500,-93.5000,64.5625,0.61895751953125,-0.59948730468750,-0.42358398437500,-0.27935791015625,stop
186.43,3,0,3,3,-2.3200,-0.3900,-0.2000,16.3750,-96.8750,67.8750,0.61785888671875,-0.60351562500000,-0.42565917968750,-0.26995849609375,stop
186.44,3,0,3,3,-2.3200,-0.3900,-0.2000,16.3750,-96.8750,67.8750,0.61785888671875,-0.60351562500000,-0.42565917968750,-0.26995849609375,stop
186.44,3,0,3,3,-0.9600,0.2500,0.4100,17.6875,-101.0625,70.5625,0.61669921875000,-0.60754394531250,-0.42773437500000,-0.26013183593750,stop
186.45,3,0,3,3,0.1000,0.5800,0.7100,18.9375,-105.9375,71.0000,0.61529541015625,-0.61157226562500,-0.43005371093750,-0.24993896484375,stop
186.46,3,0,3,3,1.3200,0.7500,1.2100,25.0625,-103.3125,69.5000,0.61425781250000,-0.61505126953125,-0.43243408203125,-0.23968505859375,stop
186.47,3,0,3,3,2.0700,1.4000,1.7300,33.5000,-92.2500,66.6250,0.61389160156250,-0.61767578125000,-0.43444824218750,-0.22985839843750,stop
186.48,3,0,3,3,2.8900,2.9200,1.6800,32.6250,-83.3750,64.7500,0.61376953125000,-0.62005615234375,-0.43603515625000,-0.22064208984375,stop
186.50,3,0,3,3,4.5900,4.7100,1.4800,26.5625,-63.2500,53.3750,0.61358642578125,-0.62408447265625,-0.43829345703125,-0.20483398437500,stop
186.51,3,0,3,3,6.5900,5.9400,1.5300,26.8125,-46.8750,45.6875,0.61407470703125,-0.62524414062500,-0.43878173828125,-0.19879150390625,stop
186.52,3,0,3,3,7.6200,6.3300,1.0500,19.2500,-44.1250,36.0000,0.61401367187500,-0.62634277343750,-0.43951416015625,-0.19372558593750,stop
186.53,3,0,3,3,8.4800,6.4100,0.7800,13.0625,-44.3750,26.5000,0.61346435546875,-0.62738037109375,-0.44067382812500,-0.18939208984375,stop
186.54,3,0,3,3,9.1800,5.9500,0.6900,10.8750,-38.4375,14.4375,0.61285400390625,-0.62799072265625,-0.44207763671875,-0.18609619140625,stop
186.55,3,0,3,3,7.5600,3.7800,1.5500,8.3750,-35.3125,2.0625,0.61193847656250,-0.62817382812500,-0.44403076171875,-0.18371582031250,stop
186.56,3,0,3,3,6.5500,2.5000,2.0900,-2.0000,-26.7500,-10.0625,0.61065673828125,-0.62829589843750,-0.44598388671875,-0.18286132812500,stop
186.57,3,0,3,3,5.8700,1.6900,2.4600,-12.1875,-11.1875,-20.1875,0.60919189453125,-0.62835693359375,-0.44750976562500,-0.18383789062500,stop
186.58,3,0,3,3,5.5900,1.3800,2.4600,-21.1250,5.2500,-27.6250,0.60778808593750,-0.62829589843750,-0.44842529296875,-0.18646240234375,stop
186.59,3,0,3,3,5.5900,2.0700,1.1100,-28.3750,21.6250,-32.1875,0.60656738281250,-0.62817382812500,-0.44860839843750,-0.19049072265625,stop
186.60,3,0,3,3,5.5200,2.8200,0.1900,-32.6250,38.9375,-36.6250,0.60565185546875,-0.62774658203125,-0.44799804687500,-0.19586181640625,stop
186.61,3,0,3,3,5.4900,3.3100,-0.4300,-34.6875,52.8750,-41.7500,0.60510253906250,-0.62701416015625,-0.44689941406250,-0.20239257812500,stop
186.62,3,0,3,3,5.6600,4.2700,-0.6900,-38.5000,55.3125,-47.3125,0.60430908203125,-0.62615966796875,-0.44592285156250,-0.20941162109375,stop
186.63,3,0,3,3,5.3200,4.4600,-0.6500,-45.4375,47.0625,-53.5000,0.60266113281250,-0.62561035156250,-0.44555664062500,-0.21667480468750,stop
186.64,3,0,3,3,5.0700,4.4700,-0.3900,-50.2500,40.1875,-62.8125,0.60028076171875,-0.62500000000000,-0.44592285156250,-0.22412109375000,stop
186.65,3,0,3,3,4.6200,4.3700,-0.0300,-52.0625,33.7500,-72.1250,0.59729003906250,-0.62420654296875,-0.44708251953125,-0.23181152343750,stop
186.66,3,0,3,3,3.2700,3.6300,0.7800,-50.5000,30.5625,-79.8125,0.59411621093750,-0.62304687500000,-0.44885253906250,-0.23968505859375,stop
186.67,3,0,3,3,2.4900,2.9300,0.9900,-46.0000,34.3125,-86.3125,0.59106445312500,-0.62121582031250,-0.45080566406250,-0.24786376953125,stop
186.68,3,0,3,3,1.8100,2.3100,1.2200,-45.6250,44.1875,-90.5625,0.58837890625000,-0.61901855468750,-0.45245361328125,-0.25677490234375,stop
186.69,3,0,3,3,1.8100,2.3100,1.2200,-45.6250,44.1875,-90.5625,0.58837890625000,-0.61901855468750,-0.45245361328125,-0.25677490234375,stop
186.69,3,0,3,3,1.2900,1.5500,1.3100,-45.4375,63.3125,-93.2500,0.58630371093750,-0.61614990234375,-0.45324707031250,-0.26684570312500,stop
186.70,3,0,3,3,0.6000,0.5500,1.3500,-43.0000,89.8125,-95.0625,0.58526611328125,-0.61242675781250,-0.45275878906250,-0.27825927734375,stop
186.71,3,0,3,3,0.2500,-0.0800,1.2400,-42.6250,114.8125,-95.6250,0.58514404296875,-0.60797119140625,-0.45092773437500,-0.29101562500000,stop
186.72,3,0,3,3,-0.1500,-0.8200,1.2600,-43.0000,130.7500,-95.1250,0.58551025390625,-0.60296630859375,-0.44824218750000,-0.30450439453125,stop
186.73,3,0,3,3,-0.7400,-1.9800,1.0200,-43.3750,138.1250,-96.1875,0.58599853515625,-0.59765625000000,-0.44506835937500,-0.31842041015625,stop
186.74,3,0,3,3,-1.3600,-2.7100,0.3000,-49.1250,135.5000,-98.5000,0.58587646484375,-0.59246826171875,-0.44189453125000,-0.33245849609375,stop
186.75,3,0,3,3,-1.9200,-3.5100,-0.2700,-60.1250,131.8125,-98.3750,0.58489990234375,-0.58776855468750,-0.43841552734375,-0.34661865234375,stop
186.76,3,0,3,3,-2.5600,-4.0600,-0.5900,-58.5000,129.7500,-100.2500,0.58380126953125,-0.58288574218750,-0.43518066406250,-0.36065673828125,stop
186.77,3,0,3,3,-3.6200,-4.7300,-1.0900,-47.8750,119.9375,-99.8125,0.58270263671875,-0.57769775390625,-0.43261718750000,-0.37365722656250,stop
186.78,3,0,3,3,-4.2700,-5.6700,-1.3000,-37.7500,100.6250,-95.7500,0.58142089843750,-0.57263183593750,-0.43103027343750,-0.38500976562500,stop
186.79,3,0,3,3,-4.2300,-6.0400,-2.3500,-29.0625,79.0625,-94.8750,0.57971191406250,-0.56781005859375,-0.43078613281250,-0.39489746093750,stop
186.82,3,0,3,3,-3.9300,-6.6400,-4.0500,13.5625,41.3750,-77.0000,0.57794189453125,-0.55773925781250,-0.43402099609375,-0.40814208984375,stop
186.82,3,0,3,3,-4.5800,-6.7900,-4.7400,36.5000,25.2500,-62.0625,0.57849121093750,-0.55261230468750,-0.43701171875000,-0.41113281250000,stop
186.83,3,0,3,3,-5.5900,-7.4300,-4.9400,63.0000,4.6250,-46.8750,0.58001708984375,-0.54742431640625,-0.44128417968750,-0.41131591796875,stop
186.84,3,0,3,3,-5.6900,-7.0500,-4.3700,86.6250,-25.7500,-42.7500,0.58160400390625,-0.54229736328125,-0.44775390625000,-0.40887451171875,stop
186.85,3,0,3,3,-5.5800,-6.4000,-4.1800,89.3125,-54.0000,-37.1250,0.58233642578125,-0.53820800781250,-0.45538330078125,-0.40472412109375,stop
186.86,3,0,3,3,-5.1800,-5.5700,-3.6800,81.2500,-54.6250,-20.6875,0.58325195312500,-0.53515625000000,-0.46197509765625,-0.39996337890625,stop
186.87,3,0,3,3,-4.5600,-5.4200,-2.7600,62.1875,-38.1875,-4.3125,0.58447265625000,-0.53320312500000,-0.46630859375000,-0.39581298828125,stop
186.88,3,0,3,3,-2.8600,-4.4900,-1.3000,33.8750,-16.7500,15.1250,0.58587646484375,-0.53265380859375,-0.46759033203125,-0.39288330078125,stop
186.89,3,0,3,3,-2.2800,-4.2600,-0.9500,8.4375,0.0000,34.4375,0.58746337890625,-0.53363037109375,-0.46624755859375,-0.39074707031250,stop
186.90,3,0,3,3,-1.7200,-4.0300,-0.6900,-4.8750,9.5625,48.8750,0.58929443359375,-0.53558349609375,-0.46331787109375,-0.38885498046875,stop
186.91,3,0,3,3,-1.3700,-3.8600,-0.4800,-10.1250,7.2500,63.0000,0.59124755859375,-0.53839111328125,-0.45965576171875,-0.38635253906250,stop
186.92,3,0,3,3,-1.7700,-4.1400,-1.0600,-7.5000,-5.4375,73.6875,0.59320068359375,-0.54193115234375,-0.45617675781250,-0.38256835937500,moving
186.93,3,0,3,3,-2.1200,-4.1200,-1.4300,7.7500,-26.1875,79.5000,0.59515380859375,-0.54559326171875,-0.45397949218750,-0.37683105468750,moving
186.94,3,0,3,3,-2.4700,-4.1200,-1.5400,24.8125,-41.0625,83.3125,0.59741210937500,-0.54895019531250,-0.45294189453125,-0.36950683593750,moving
186.95,3,0,3,3,-3.1500,-4.2200,-1.3700,36.7500,-49.3125,89.8125,0.60009765625000,-0.55218505859375,-0.45233154296875,-0.36096191406250,moving
186.96,3,0,3,3,-3.0900,-4.0900,-1.3600,39.3125,-56.6875,99.3750,0.60290527343750,-0.55584716796875,-0.45172119140625,-0.35144042968750,moving
186.97,3,0,3,3,-2.7600,-3.6900,-1.2400,38.6875,-60.8125,110.8125,0.60571289062500,-0.56005859375000,-0.45068359375000,-0.34106445312500,moving
186.98,3,0,3,3,-2.7600,-3.6900,-1.2400,38.6875,-60.8125,110.8125,0.60571289062500,-0.56005859375000,-0.45068359375000,-0.34106445312500,moving
186.98,3,0,3,3,-1.9900,-2.9600,-0.9600,36.8750,-61.7500,120.5625,0.60864257812500,-0.56469726562500,-0.44909667968750,-0.33013916015625,moving
186.99,3,0,3,3,-0.5500,-1.7600,-0.5700,32.3125,-61.6875,126.8125,0.61145019531250,-0.56970214843750,-0.44696044921875,-0.31903076171875,moving
187.00,3,0,3,3,0.0100,-1.1500,-0.2400,33.1875,-62.0625,129.4375,0.61425781250000,-0.57470703125000,-0.44470214843750,-0.30767822265625,moving
187.01,3,0,3,3,0.6400,-0.2700,0.1000,38.5000,-61.3125,126.1250,0.61718750000000,-0.57916259765625,-0.44262695312500,-0.29626464843750,moving
187.02,3,0,3,3,1.6700,1.7900,0.2000,38.6250,-59.6875,120.9375,0.61987304687500,-0.58325195312500,-0.44067382812500,-0.28515625000000,moving
187.03,3,0,3,3,2.6800,2.7200,0.0000,29.4375,-58.0000,112.6875,0.62194824218750,-0.58746337890625,-0.43872070312500,-0.27490234375000,moving
187.04,3,0,3,3,3.9800,4.0700,-0.3200,16.6875,-54.4375,99.4375,0.62310791015625,-0.59167480468750,-0.43695068359375,-0.26605224609375,moving
187.05,3,0,3,3,4.9100,5.7100,-0.5500,-2.7500,-67.5625,83.3125,0.62225341796875,-0.59655761718750,-0.43621826171875,-0.25805664062500,moving
187.06,3,0,3,3,6.7700,9.2300,-2.4300,-34.8750,-84.8750,54.5625,0.61846923828125,-0.60241699218750,-0.43713378906250,-0.25201416015625,moving
187.07,3,0,3,3,6.5100,11.1300,-2.3400,-34.6250,-79.1875,38.9375,0.61444091796875,-0.60754394531250,-0.43859863281250,-0.24700927734375,moving
187.08,3,0,3,3,6.3400,11.1800,-1.2700,-3.4375,-72.1250,34.5000,0.61224365234375,-0.61059570312500,-0.44055175781250,-0.24145507812500,moving
187.09,3,0,3,3,6.3500,11.5900,0.0900,26.1875,-74.0625,26.6250,0.61132812500000,-0.61175537109375,-0.44360351562500,-0.23504638671875,moving
187.10,3,0,3,3,5.7100,9.2000,2.9200,44.8750,-89.1250,25.5625,0.61071777343750,-0.61218261718750,-0.44793701171875,-0.22717285156250,moving
187.11,3,0,3,3,5.2600,6.3200,4.6700,36.0000,-95.8750,22.8125,0.60931396484375,-0.61303710937500,-0.45251464843750,-0.21942138671875,moving
187.12,3,0,3,3,5.9200,4.3900,4.4600,9.2500,-72.5000,5.3125,0.60705566406250,-0.61407470703125,-0.45623779296875,-0.21490478515625,moving
187.14,3,0,3,3,5.1500,3.2300,1.8900,-27.4375,18.9375,-12.7500,0.60406494140625,-0.61566162109375,-0.45715332031250,-0.21691894531250,moving
187.15,3,0,3,3,4.7300,3.8200,0.9700,-34.3125,61.3125,-20.0000,0.60430908203125,-0.61547851562500,-0.45434570312500,-0.22265625000000,moving
187.16,3,0,3,3,4.5600,4.2500,0.1000,-35.8750,77.2500,-30.6875,0.60479736328125,-0.61462402343750,-0.45123291015625,-0.22985839843750,moving
187.17,3,0,3,3,4.4400,4.7000,-1.1300,-42.6875,70.6250,-45.4375,0.60437011718750,-0.61364746093750,-0.44909667968750,-0.23779296875000,moving
187.18,3,0,3,3,4.2600,4.4500,-1.0000,-48.3750,66.8125,-61.2500,0.60308837890625,-0.61236572265625,-0.44787597656250,-0.24652099609375,moving
187.19,3,0,3,3,4.1100,3.9700,-0.6800,-50.6875,62.0000,-74.3750,0.60113525390625,-0.61071777343750,-0.44750976562500,-0.25573730468750,moving
187.20,3,0,3,3,4.0600,3.2100,-0.0500,-51.2500,51.0625,-83.4375,0.59851074218750,-0.60894775390625,-0.44812011718750,-0.26489257812500,moving
187.21,3,0,3,3,3.6700,2.3000,0.6200,-50.8750,42.4375,-90.0000,0.59533691406250,-0.60705566406250,-0.44952392578125,-0.27386474609375,moving
187.22,3,0,3,3,3.2300,1.7700,0.6100,-47.6250,40.3125,-94.8125,0.59210205078125,-0.60479736328125,-0.45129394531250,-0.28283691406250,moving
187.23,3,0,3,3,2.5300,1.2100,0.4700,-35.6250,42.5625,-98.6875,0.58941650390625,-0.60162353515625,-0.45343017578125,-0.29162597656250,moving
187.24,3,0,3,3,2.5300,1.2100,0.4700,-35.6250,42.5625,-98.6875,0.58941650390625,-0.60162353515625,-0.45343017578125,-0.29162597656250,moving
187.24,3,0,3,3,1.7000,0.0900,0.3400,-22.4375,44.0000,-100.0000,0.58734130859375,-0.59765625000000,-0.45587158203125,-0.29998779296875,moving
187.25,3,0,3,3,0.9200,-0.4400,0.2400,-14.9375,49.8125,-98.8125,0.58593750000000,-0.59307861328125,-0.45806884765625,-0.30828857421875,moving
187.26,3,0,3,3,0.1500,-0.9500,0.0800,-16.9375,60.5000,-96.5625,0.58483886718750,-0.58843994140625,-0.45953369140625,-0.31707763671875,moving
187.27,3,0,3,3,-0.1100,-1.8700,0.4000,-29.3125,69.2500,-92.5000,0.58349609375000,-0.58422851562500,-0.45996093750000,-0.32659912109375,moving
187.28,3,0,3,3,-0.8300,-3.5400,1.3200,-32.4375,78.3750,-91.1875,0.58233642578125,-0.57989501953125,-0.45971679687500,-0.33654785156250,moving
187.29,3,0,3,3,-1.6700,-4.2100,1.0800,-30.4375,80.8750,-89.9375,0.58135986328125,-0.57537841796875,-0.45922851562500,-0.34643554687500,moving
187.30,3,0,3,3,-2.4000,-4.9300,0.7000,-29.2500,85.0625,-85.6250,0.58068847656250,-0.57080078125000,-0.45831298828125,-0.35626220703125,moving
187.31,3,0,3,3,-3.4100,-5.5300,0.4400,-32.8125,88.4375,-76.7500,0.58013916015625,-0.56658935546875,-0.45666503906250,-0.36590576171875,moving
187.32,3,0,3,3,-4.4400,-6.6100,-0.3700,-34.6875,86.9375,-69.5000,0.57965087890625,-0.56274414062500,-0.45458984375000,-0.37506103515625,moving
187.33,3,0,3,3,-4.7800,-6.8300,-1.1300,-33.6250,80.4375,-62.8750,0.57910156250000,-0.55926513671875,-0.45245361328125,-0.38354492187500,moving
187.34,3,0,3,3,-5.0000,-7.1600,-1.7000,-27.7500,70.3125,-51.6875,0.57873535156250,-0.55627441406250,-0.45050048828125,-0.39068603515625,moving
187.35,3,0,3,3,-5.0200,-8.2300,-3.1000,-11.1875,54.1875,-36.6875,0.57910156250000,-0.55352783203125,-0.44915771484375,-0.39562988281250,moving
187.36,3,0,3,3,-4.7600,-8.3200,-3.5600,14.3125,29.1250,-24.6875,0.58007812500000,-0.55078125000000,-0.44940185546875,-0.39776611328125,moving
187.37,3,0,3,3,-5.5000,-7.7800,-4.2300,39.2500,6.0625,-15.7500,0.58166503906250,-0.54797363281250,-0.45117187500000,-0.39727783203125,moving
187.38,3,0,3,3,-5.0100,-7.1500,-6.0500,69.4375,-7.0625,-1.3750,0.58465576171875,-0.54461669921875,-0.45397949218750,-0.39428710937500,moving
187.39,3,0,3,3,-4.4400,-5.2100,-5.5200,92.3125,-28.1250,-2.2500,0.58782958984375,-0.54077148437500,-0.45867919921875,-0.38940429687500,moving
187.40,3,0,3,3,-4.8300,-4.7100,-4.5100,84.5000,-29.9375,6.2500,0.59082031250000,-0.53771972656250,-0.46276855468750,-0.38421630859375,moving
187.41,3,0,3,3,-5.0200,-4.3500,-3.7400,57.5625,-19.3125,24.8125,0.59356689453125,-0.53643798828125,-0.46453857421875,-0.37969970703125,moving
187.42,3,0,3,3,-5.0200,-4.3200,-3.2500,22.0625,-18.3750,44.0625,0.59527587890625,-0.53771972656250,-0.46411132812500,-0.37561035156250,moving
187.43,3,0,3,3,-4.2300,-4.2800,-2.5500,-1.3750,-20.3125,60.7500,0.59637451171875,-0.54089355468750,-0.46228027343750,-0.37152099609375,moving
187.44,3,0,3,3,-3.7900,-4.0700,-1.7200,-8.5625,-25.8125,73.0000,0.59729003906250,-0.54516601562500,-0.45983886718750,-0.36682128906250,moving
187.46,3,0,3,3,-2.6800,-3.6500,-0.7500,1.1875,-46.7500,92.8750,0.59912109375000,-0.55529785156250,-0.45562744140625,-0.35369873046875,moving
187.47,3,0,3,3,-2.4200,-3.4500,-0.2400,13.9375,-49.0000,99.8125,0.60095214843750,-0.56005859375000,-0.45373535156250,-0.34545898437500,moving
187.48,3,0,3,3,-2.2300,-3.1700,0.2900,24.8125,-52.8125,105.7500,0.60321044921875,-0.56457519531250,-0.45202636718750,-0.33630371093750,moving
187.49,3,0,3,3,-1.9800,-2.9100,0.7100,30.3750,-65.6250,112.0000,0.60534667968750,-0.56927490234375,-0.45080566406250,-0.32592773437500,moving
187.50,3,0,3,3,-1.2800,-2.5300,0.5300,32.6875,-79.5625,119.1250,0.60723876953125,-0.57452392578125,-0.44995117187500,-0.31427001953125,moving
187.51,3,0,3,3,-1.1600,-2.2200,0.2700,37.5625,-85.0625,123.6250,0.60913085937500,-0.57971191406250,-0.44921875000000,-0.30194091796875,moving
187.52,3,0,3,3,-1.1600,-2.2200,0.2700,37.5625,-85.0625,123.6250,0.60913085937500,-0.57971191406250,-0.44921875000000,-0.30194091796875,moving
187.52,3,0,3,3,-0.7200,-1.6200,-0.1700,42.2500,-79.8750,126.8125,0.61138916015625,-0.58447265625000,-0.44805908203125,-0.28942871093750,moving
187.53,3,0,3,3,0.8700,0.4300,-0.5100,45.0000,-66.8125,123.5000,0.61419677734375,-0.58862304687500,-0.44641113281250,-0.27758789062500,moving
187.54,3,0,3,3,1.8800,1.9200,-0.7100,42.8750,-59.3125,113.2500,0.61676025390625,-0.59216308593750,-0.44476318359375,-0.26672363281250,moving
187.55,3,0,3,3,2.9100,3.3800,-1.1500,26.8750,-55.7500,104.3750,0.61840820312500,-0.59606933593750,-0.44293212890625,-0.25714111328125,moving
187.56,3,0,3,3,3.9200,4.4400,-1.2500,4.5625,-52.9375,86.0000,0.61853027343750,-0.60034179687500,-0.44140625000000,-0.24951171875000,moving
187.57,3,0,3,3,7.0300,9.0700,-2.2700,-19.3750,-58.4375,56.6875,0.61645507812500,-0.60485839843750,-0.44110107421875,-0.24407958984375,moving
187.58,3,0,3,3,6.8300,10.1500,-2.3400,-28.8125,-55.6875,41.3750,0.61364746093750,-0.60919189453125,-0.44128417968750,-0.23999023437500,moving
187.59,3,0,3,3,7.0700,10.3000,-1.3900,-7.4375,-51.5625,39.8750,0.61212158203125,-0.61218261718750,-0.44177246093750,-0.23535156250000,moving
187.60,3,0,3,3,7.5500,11.1200,-0.7400,11.6875,-53.0625,26.0000,0.61120605468750,-0.61364746093750,-0.44342041015625,-0.23065185546875,moving
187.61,3,0,3,3,8.0300,11.4000,2.2500,32.3125,-57.4375,16.3125,0.61102294921875,-0.61370849609375,-0.44628906250000,-0.22546386718750,moving
187.62,3,0,3,3,8.1500,9.2200,3.3400,36.3125,-72.0000,17.1875,0.61047363281250,-0.61389160156250,-0.44989013671875,-0.21929931640625,moving
187.63,3,0,3,3,7.8700,6.8800,3.6300,14.9375,-76.8750,5.0000,0.60833740234375,-0.61474609375000,-0.45397949218750,-0.21429443359375,moving
187.64,3,0,3,3,6.5700,5.2700,3.8400,-14.2500,-61.0625,-9.0000,0.60491943359375,-0.61627197265625,-0.45745849609375,-0.21209716796875,moving
187.65,3,0,3,3,6.0300,4.7100,3.6000,-30.2500,-17.0625,-23.8125,0.60217285156250,-0.61718750000000,-0.45910644531250,-0.21368408203125,moving
187.66,3,0,3,3,5.3900,4.0800,2.7500,-39.8750,28.6875,-33.3125,0.60052490234375,-0.61737060546875,-0.45867919921875,-0.21862792968750,moving
187.67,3,0,3,3,4.8400,3.8400,1.6900,-44.9375,59.0625,-42.3125,0.59967041015625,-0.61688232421875,-0.45703125000000,-0.22583007812500,moving
187.68,3,0,3,3,3.7200,3.6600,0.2700,-48.6250,79.5000,-53.0000,0.59912109375000,-0.61572265625000,-0.45477294921875,-0.23486328125000,moving
187.69,3,0,3,3,3.7400,3.5800,-0.5400,-52.8750,82.4375,-63.4375,0.59820556640625,-0.61419677734375,-0.45281982421875,-0.24475097656250,moving
187.70,3,0,3,3,4.1200,3.4300,-1.3500,-57.2500,72.4375,-73.0625,0.59637451171875,-0.61267089843750,-0.45172119140625,-0.25469970703125,moving
187.71,3,0,3,3,4.4500,3.2500,-1.7800,-56.1875,69.3750,-82.7500,0.59423828125000,-0.61077880859375,-0.45129394531250,-0.26501464843750,moving
187.72,3,0,3,3,5.3100,3.4100,-1.9300,-57.0625,56.6250,-89.8750,0.59130859375000,-0.60882568359375,-0.45184326171875,-0.27496337890625,moving
187.73,3,0,3,3,4.7900,3.2100,-1.4600,-59.6875,40.6875,-95.3125,0.58740234375000,-0.60705566406250,-0.45336914062500,-0.28442382812500,moving
187.74,3,0,3,3,4.3800,2.8700,-0.6200,-49.0000,34.1875,-99.5625,0.58361816406250,-0.60473632812500,-0.45568847656250,-0.29333496093750,moving
187.75,3,0,3,3,3.5600,1.5700,1.5500,-40.0625,31.3125,-103.0625,0.58007812500000,-0.60180664062500,-0.45849609375000,-0.30187988281250,moving
187.78,3,0,3,3,3.0900,0.0200,3.3300,-36.6250,55.0000,-108.7500,0.57403564453125,-0.59429931640625,-0.46331787109375,-0.32037353515625,moving
187.78,3,0,3,3,2.4800,-0.9300,3.3800,-45.2500,80.5000,-108.3750,0.57183837890625,-0.58984375000000,-0.46368408203125,-0.33184814453125,moving
187.79,3,0,3,3,2.4800,-0.9300,3.3800,-45.2500,80.5000,-108.3750,0.57183837890625,-0.58984375000000,-0.46368408203125,-0.33184814453125,moving
187.79,3,0,3,3,0.3500,-2.5300,1.8700,-60.7500,109.6250,-104.8125,0.57000732421875,-0.58532714843750,-0.46185302734375,-0.34521484375000,moving
187.80,3,0,3,3,-0.4800,-3.3700,0.9900,-76.0000,137.3125,-100.3750,0.56854248046875,-0.58081054687500,-0.45782470703125,-0.36029052734375,moving
187.81,3,0,3,3,-1.3700,-3.9800,0.1800,-90.0000,144.4375,-100.1875,0.56652832031250,-0.57659912109375,-0.45281982421875,-0.37615966796875,moving
187.82,3,0,3,3,-2.6100,-4.4400,-0.6000,-93.7500,133.5625,-101.0000,0.56365966796875,-0.57275390625000,-0.44818115234375,-0.39160156250000,moving
187.83,3,0,3,3,-4.6600,-5.6800,-1.0000,-84.9375,118.5625,-100.5000,0.56054687500000,-0.56884765625000,-0.44445800781250,-0.40576171875000,moving
187.84,3,0,3,3,-4.9200,-6.3200,-1.2900,-72.8750,107.5000,-94.1875,0.55773925781250,-0.56481933593750,-0.44128417968750,-0.41851806640625,moving
187.85,3,0,3,3,-5.5700,-7.1900,-1.8200,-61.7500,91.8750,-86.6250,0.55499267578125,-0.56109619140625,-0.43878173828125,-0.42968750000000,moving
187.86,3,0,3,3,-4.9200,-7.9000,-3.1000,-39.3125,69.6875,-83.4375,0.55261230468750,-0.55712890625000,-0.43804931640625,-0.43859863281250,moving
187.87,3,0,3,3,-4.9100,-8.3300,-3.7200,-1.2500,41.8125,-75.5000,0.55120849609375,-0.55267333984375,-0.43963623046875,-0.44433593750000,moving
187.88,3,0,3,3,-6.0200,-9.2600,-3.8900,32.6875,2.3750,-57.2500,0.55065917968750,-0.54876708984375,-0.44354248046875,-0.44598388671875,moving
187.89,3,0,3,3,-7.6100,-10.6200,-5.5600,55.1875,-34.0625,-42.6250,0.55029296875000,-0.54577636718750,-0.44934082031250,-0.44427490234375,moving
187.90,3,0,3,3,-6.5800,-8.7200,-5.9400,111.6250,-43.1250,-29.8125,0.55273437500000,-0.54089355468750,-0.45715332031250,-0.43920898437500,moving
187.91,3,0,3,3,-5.7400,-6.9700,-5.4900,148.0625,-54.0625,-24.9375,0.55657958984375,-0.53479003906250,-0.46655273437500,-0.43194580078125,moving
187.92,3,0,3,3,-5.3500,-6.1200,-5.0200,134.5625,-69.5000,-26.8750,0.55895996093750,-0.52972412109375,-0.47619628906250,-0.42443847656250,moving
187.93,3,0,3,3,-5.0500,-5.5100,-3.2800,94.6875,-29.6875,-10.6875,0.56170654296875,-0.52575683593750,-0.48162841796875,-0.41961669921875,moving
187.94,3,0,3,3,-4.0500,-4.2400,-2.1100,40.1875,-7.1875,15.0000,0.56378173828125,-0.52471923828125,-0.48272705078125,-0.41687011718750,moving
187.95,3,0,3,3,-3.5300,-4.6300,-1.7600,-7.6875,-7.1250,42.6250,0.56469726562500,-0.52716064453125,-0.48083496093750,-0.41473388671875,moving
187.96,3,0,3,3,-2.9600,-4.8100,-1.5000,-30.2500,2.2500,64.6250,0.56573486328125,-0.53131103515625,-0.47662353515625,-0.41290283203125,moving
187.97,3,0,3,3,-1.6200,-4.9200,-0.9000,-29.1250,4.6250,78.6250,0.56744384765625,-0.53588867187500,-0.47167968750000,-0.41040039062500,moving
187.98,3,0,3,3,-1.4600,-5.1900,-0.7900,-14.3125,-7.1250,90.3750,0.56970214843750,-0.54058837890625,-0.46722412109375,-0.40612792968750,moving
187.99,3,0,3,3,-1.9100,-5.3200,-0.7400,8.6875,-22.3750,100.3750,0.57275390625000,-0.54504394531250,-0.46386718750000,-0.39965820312500,moving
188.00,3,0,3,3,-2.5000,-5.1100,-0.6600,36.4375,-39.1875,104.3125,0.57653808593750,-0.54882812500000,-0.46209716796875,-0.39099121093750,moving
188.01,3,0,3,3,-3.5600,-4.6800,-0.5200,57.5625,-52.7500,109.3125,0.58087158203125,-0.55212402343750,-0.46142578125000,-0.38061523437500,moving
188.02,3,0,3,3,-3.6100,-4.5600,-0.5000,67.9375,-56.7500,117.5625,0.58569335937500,-0.55529785156250,-0.46081542968750,-0.36907958984375,moving
188.03,3,0,3,3,-3.2700,-4.3900,-0.4700,71.5000,-62.1250,130.5000,0.59082031250000,-0.55889892578125,-0.45989990234375,-0.35644531250000,moving
188.04,3,0,3,3,-3.2700,-4.3900,-0.4700,71.5000,-62.1250,130.5000,0.59082031250000,-0.55889892578125,-0.45989990234375,-0.35644531250000,moving
188.04,3,0,3,3,-2.6600,-4.2200,-0.5900,69.3750,-67.6250,143.4375,0.59588623046875,-0.56317138671875,-0.45843505859375,-0.34289550781250,moving
188.05,3,0,3,3,-0.9300,-2.8700,-0.7500,65.2500,-68.9375,152.6875,0.60089111328125,-0.56787109375000,-0.45642089843750,-0.32885742187500,moving
188.06,3,0,3,3,-0.1100,-1.8600,-0.8000,60.5000,-66.2500,156.5000,0.60565185546875,-0.57281494140625,-0.45373535156250,-0.31488037109375,moving
188.07,3,0,3,3,0.8400,-0.7300,-0.5400,61.6250,-66.2500,154.6875,0.61035156250000,-0.57745361328125,-0.45111083984375,-0.30084228515625,moving
188.08,3,0,3,3,2.9400,0.7700,-0.6600,57.6250,-58.0000,148.3125,0.61480712890625,-0.58172607421875,-0.44818115234375,-0.28765869140625,moving
188.11,3,0,3,3,4.7100,4.0100,-1.3500,25.5625,-43.1250,128.6250,0.62145996093750,-0.59045410156250,-0.44085693359375,-0.26605224609375,moving
188.11,3,0,3,3,5.1000,5.1300,-1.9400,-7.3125,-47.9375,118.3750,0.62194824218750,-0.59649658203125,-0.43713378906250,-0.25738525390625,moving
188.12,3,0,3,3,7.7400,8.1800,-2.8500,-49.5000,-56.1250,86.3125,0.61914062500000,-0.60375976562500,-0.43450927734375,-0.25164794921875,moving
188.13,3,0,3,3,10.0300,11.5700,-3.8600,-83.5625,-73.7500,41.5000,0.61285400390625,-0.61145019531250,-0.43444824218750,-0.24859619140625,moving
188.14,3,0,3,3,10.0800,14.0100,-2.5100,-58.7500,-62.3750,20.9375,0.60778808593750,-0.61676025390625,-0.43536376953125,-0.24633789062500,moving
188.15,3,0,3,3,9.6700,14.2900,1.6500,7.3750,-55.1875,12.8125,0.60632324218750,-0.61804199218750,-0.43774414062500,-0.24243164062500,moving
188.16,3,0,3,3,8.1000,14.9200,3.3600,74.0625,-66.0000,0.5625,0.60778808593750,-0.61553955078125,-0.44274902343750,-0.23596191406250,moving
188.17,3,0,3,3,5.1200,10.2300,5.3600,92.0000,-99.3750,15.8750,0.60913085937500,-0.61328125000000,-0.44903564453125,-0.22625732421875,moving
188.18,3,0,3,3,4.8300,6.1200,4.4600,55.1250,-93.1875,14.1875,0.60870361328125,-0.61267089843750,-0.45434570312500,-0.21832275390625,moving
188.19,3,0,3,3,5.0100,4.1300,4.2000,18.0625,-34.2500,-0.3750,0.60827636718750,-0.61236572265625,-0.45654296875000,-0.21582031250000,moving
188.20,3,0,3,3,5.2200,4.0100,2.6400,-17.0000,18.9375,-8.9375,0.60797119140625,-0.61254882812500,-0.45568847656250,-0.21801757812500,moving
188.21,3,0,3,3,5.4000,4.0200,1.2700,-43.6875,49.2500,-14.8750,0.60723876953125,-0.61334228515625,-0.45306396484375,-0.22320556640625,moving
188.22,3,0,3,3,5.7000,3.7900,0.5100,-45.5000,77.8750,-25.4375,0.60736083984375,-0.61315917968750,-0.44940185546875,-0.23052978515625,moving
188.23,3,0,3,3,5.9500,3.7300,-0.0200,-41.8750,91.6250,-37.2500,0.60797119140625,-0.61199951171875,-0.44573974609375,-0.23907470703125,moving
188.24,3,0,3,3,6.0000,3.5400,-0.1400,-43.1250,90.6250,-50.3125,0.60809326171875,-0.61041259765625,-0.44268798828125,-0.24829101562500,moving
188.25,3,0,3,3,6.1500,3.0800,-0.3500,-50.0000,82.0000,-59.9375,0.60723876953125,-0.60888671875000,-0.44049072265625,-0.25781250000000,moving
188.26,3,0,3,3,7.3800,2.4600,-1.1100,-62.4375,69.2500,-67.1875,0.60504150390625,-0.60803222656250,-0.43896484375000,-0.26751708984375,moving
188.27,3,0,3,3,7.6600,2.1800,-1.3900,-73.4375,51.3750,-71.5000,0.60137939453125,-0.60791015625000,-0.43835449218750,-0.27685546875000,moving
188.28,3,0,3,3,7.6800,1.6900,-1.3400,-78.5625,37.1250,-72.3750,0.59680175781250,-0.60827636718750,-0.43835449218750,-0.28570556640625,moving
188.29,3,0,3,3,7.2400,0.7600,-0.8700,-76.5000,31.3125,-71.3125,0.59216308593750,-0.60870361328125,-0.43865966796875,-0.29400634765625,moving
188.30,3,0,3,3,7.2400,0.7600,-0.8700,-76.5000,31.3125,-71.3125,0.59216308593750,-0.60870361328125,-0.43865966796875,-0.29400634765625,moving
188.30,3,0,3,3,5.7500,-0.9300,1.4600,-61.1250,18.0625,-75.1250,0.58764648437500,-0.60845947265625,-0.44018554687500,-0.30126953125000,moving
188.31,3,0,3,3,4.5100,-2.1800,3.0100,-40.8750,8.8125,-77.3125,0.58374023437500,-0.60729980468750,-0.44274902343750,-0.30731201171875,moving
188.32,3,0,3,3,2.9700,-3.6100,4.3900,-32.6875,18.6875,-74.3125,0.58068847656250,-0.60552978515625,-0.44488525390625,-0.31341552734375,moving
188.33,3,0,3,3,1.5200,-4.6600,5.1300,-36.6875,42.1250,-73.3750,0.57836914062500,-0.60333251953125,-0.44567871093750,-0.32086181640625,moving
188.34,3,0,3,3,-0.8000,-5.1500,4.1300,-46.0000,70.1875,-75.8750,0.57647705078125,-0.60064697265625,-0.44482421875000,-0.33020019531250,moving
188.35,3,0,3,3,-2.0200,-5.1400,3.3300,-48.1250,93.5000,-76.3750,0.57531738281250,-0.59729003906250,-0.44274902343750,-0.34082031250000,moving
188.36,3,0,3,3,-2.7200,-4.9800,2.1400,-47.7500,110.9375,-73.6875,0.57489013671875,-0.59350585937500,-0.43957519531250,-0.35217285156250,moving
188.37,3,0,3,3,-5.0300,-4.6000,0.7800,-43.0625,122.6250,-64.1250,0.57537841796875,-0.58929443359375,-0.43542480468750,-0.36346435546875,moving
188.38,3,0,3,3,-5.8200,-4.1200,0.0300,-34.1250,122.9375,-56.6250,0.57641601562500,-0.58489990234375,-0.43103027343750,-0.37390136718750,moving
188.39,3,0,3,3,-6.1600,-4.2200,-0.4100,-26.8750,115.5000,-43.8750,0.57794189453125,-0.58074951171875,-0.42657470703125,-0.38305664062500,moving
188.40,3,0,3,3,-6.3500,-4.3000,-1.3100,-17.1875,95.3750,-35.1875,0.57946777343750,-0.57708740234375,-0.42297363281250,-0.39031982421875,moving
188.43,3,0,3,3,-6.5800,-3.3700,-2.9100,22.1250,55.5625,-32.0625,0.58288574218750,-0.56927490234375,-0.42041015625000,-0.39929199218750,moving
188.43,3,0,3,3,-6.5200,-3.1200,-2.6100,44.6250,44.8125,-31.3750,0.58563232421875,-0.56427001953125,-0.42126464843750,-0.40148925781250,moving
188.44,3,0,3,3,-6.4800,-2.4300,-2.3500,51.7500,40.0625,-27.5625,0.58868408203125,-0.55914306640625,-0.42236328125000,-0.40295410156250,moving
188.45,3,0,3,3,-5.9000,-1.5400,-1.8900,48.9375,42.0000,-19.2500,0.59197998046875,-0.55444335937500,-0.42285156250000,-0.40417480468750,moving
188.46,3,0,3,3,-5.5400,-1.8600,-1.9400,38.5000,43.3125,-7.3750,0.59515380859375,-0.55059814453125,-0.42230224609375,-0.40527343750000,moving
188.47,3,0,3,3,-4.9300,-1.6700,-2.3000,21.3750,44.5000,3.3750,0.59796142578125,-0.54803466796875,-0.42059326171875,-0.40643310546875,moving
188.48,3,0,3,3,-3.5000,-1.4400,-2.6200,7.4375,45.7500,15.2500,0.60058593750000,-0.54656982421875,-0.41772460937500,-0.40753173828125,moving
188.49,3,0,3,3,-2.8800,-1.2200,-2.7400,-4.5625,47.0000,25.3125,0.60296630859375,-0.54608154296875,-0.41387939453125,-0.40863037109375,moving
188.50,3,0,3,3,-2.1100,-0.7900,-2.9100,-12.2500,50.7500,31.5625,0.60534667968750,-0.54602050781250,-0.40924072265625,-0.40985107421875,moving
188.51,3,0,3,3,-0.9700,-0.1800,-2.9900,-23.3125,51.6250,35.6875,0.60736083984375,-0.54669189453125,-0.40393066406250,-0.41119384765625,moving
188.52,3,0,3,3,1.0800,0.5900,-2.8800,-35.3750,41.8125,39.3750,0.60852050781250,-0.54846191406250,-0.39855957031250,-0.41235351562500,moving
188.53,3,0,3,3,2.0100,1.2300,-2.6600,-49.3125,26.6875,38.2500,0.60845947265625,-0.55145263671875,-0.39355468750000,-0.41333007812500,moving
188.54,3,0,3,3,2.8400,2.0600,-2.4300,-63.8750,6.0000,34.0625,0.60681152343750,-0.55578613281250,-0.38928222656250,-0.41394042968750,moving
188.55,3,0,3,3,2.8600,2.5400,-2.2600,-64.5625,-24.3750,30.6250,0.60394287109375,-0.56109619140625,-0.38671875000000,-0.41333007812500,moving
188.56,3,0,3,3,2.8600,2.5400,-2.2600,-64.5625,-24.3750,30.6250,0.60394287109375,-0.56109619140625,-0.38671875000000,-0.41333007812500,moving
188.56,3,0,3,3,0.3500,1.4400,-1.1400,-42.8125,-54.8750,27.5000,0.60101318359375,-0.56622314453125,-0.38671875000000,-0.41064453125000,moving
188.57,3,0,3,3,-1.2000,-0.1200,-0.1400,-5.4375,-70.4375,21.5625,0.59912109375000,-0.56976318359375,-0.38916015625000,-0.40618896484375,moving
188.58,3,0,3,3,-1.8800,-1.2900,0.7700,24.0000,-61.8750,16.1875,0.59875488281250,-0.57128906250000,-0.39239501953125,-0.40142822265625,moving
188.59,3,0,3,3,-1.7200,-2.5300,1.5700,34.6250,-50.8125,16.3125,0.59930419921875,-0.57177734375000,-0.39544677734375,-0.39685058593750,moving
188.60,3,0,3,3,-1.9200,-2.3700,1.1800,30.5625,-46.8750,20.1250,0.59991455078125,-0.57250976562500,-0.39794921875000,-0.39239501953125,moving
188.61,3,0,3,3,-1.3600,-1.4700,0.4300,19.3750,-35.3750,25.1875,0.60052490234375,-0.57360839843750,-0.39923095703125,-0.38861083984375,moving
188.62,3,0,3,3,-0.7000,-0.3200,0.3500,15.8750,-5.5625,27.1875,0.60198974609375,-0.57391357421875,-0.39868164062500,-0.38635253906250,moving
188.63,3,0,3,3,-0.1700,0.5100,-0.8100,17.8125,8.6875,26.6875,0.60412597656250,-0.57360839843750,-0.39746093750000,-0.38476562500000,moving
188.64,3,0,3,3,-0.0100,1.0200,-1.1000,13.0625,10.4375,23.5000,0.60589599609375,-0.57336425781250,-0.39617919921875,-0.38360595703125,moving
188.65,3,0,3,3,0.0400,1.3100,-1.3300,13.3125,14.8750,19.8125,0.60778808593750,-0.57287597656250,-0.39483642578125,-0.38281250000000,moving
188.66,3,0,3,3,0.1200,1.2500,-1.3500,12.5000,10.6250,18.3125,0.60937500000000,-0.57250976562500,-0.39373779296875,-0.38195800781250,moving
188.67,3,0,3,3,-0.0300,0.9700,-0.8400,10.1250,8.2500,16.3750,0.61071777343750,-0.57226562500000,-0.39282226562500,-0.38110351562500,moving
188.68,3,0,3,3,-0.0400,0.8400,-0.7200,7.8750,4.1875,13.5625,0.61169433593750,-0.57214355468750,-0.39221191406250,-0.38031005859375,moving
188.69,3,0,3,3,0.0900,0.7400,-0.7400,4.7500,-3.3125,11.6250,0.61218261718750,-0.57244873046875,-0.39196777343750,-0.37939453125000,moving
188.70,3,0,3,3,0.3200,0.7500,-0.5600,4.5000,-7.2500,10.1250,0.61248779296875,-0.57275390625000,-0.39196777343750,-0.37829589843750,moving
188.71,3,0,3,3,0.4500,0.7700,-0.6200,3.8125,-11.8750,8.3125,0.61254882812500,-0.57324218750000,-0.39233398437500,-0.37713623046875,moving
188.72,3,0,3,3,0.4600,0.7900,-0.6200,4.0625,-14.8750,6.1875,0.61248779296875,-0.57373046875000,-0.39294433593750,-0.37591552734375,moving
188.73,3,0,3,3,0.3500,0.8300,-0.5500,3.9375,-17.9375,4.5625,0.61218261718750,-0.57427978515625,-0.39379882812500,-0.37463378906250,moving
188.76,3,0,3,3,-0.1100,0.6300,0.1100,5.1250,-20.5625,2.6875,0.61138916015625,-0.57531738281250,-0.39599609375000,-0.37194824218750,moving
188.76,3,0,3,3,-0.1900,0.5700,0.3300,5.1875,-16.9375,3.3750,0.61120605468750,-0.57574462890625,-0.39691162109375,-0.37072753906250,moving
188.77,3,0,3,3,-0.2100,0.3400,0.3300,4.1250,-11.3750,4.6875,0.61114501953125,-0.57604980468750,-0.39746093750000,-0.36975097656250,moving
188.78,3,0,3,3,-0.2700,0.3300,0.2100,3.2500,-4.4375,6.0000,0.61132812500000,-0.57623291015625,-0.39746093750000,-0.36907958984375,moving
188.79,3,0,3,3,-0.3300,0.2700,0.0100,1.8750,0.8750,6.2500,0.61169433593750,-0.57629394531250,-0.39715576171875,-0.36871337890625,moving
188.80,3,0,3,3,-0.3300,0.2400,-0.1500,0.4375,3.7500,5.8750,0.61199951171875,-0.57641601562500,-0.39666748046875,-0.36859130859375,moving
188.81,3,0,3,3,-0.3100,0.2100,-0.3100,-0.6875,5.0000,5.3125,0.61230468750000,-0.57647705078125,-0.39611816406250,-0.36859130859375,moving
188.82,3,0,3,3,-0.2800,0.1200,-0.3600,-2.3125,3.8125,4.3750,0.61242675781250,-0.57659912109375,-0.39562988281250,-0.36865234375000,moving
188.83,3,0,3,3,-0.2600,0.0900,-0.3200,-2.7500,2.1250,3.3125,0.61248779296875,-0.57684326171875,-0.39526367187500,-0.36865234375000,moving
188.84,3,0,3,3,-0.1900,0.0600,-0.3000,-2.7500,-0.3750,2.6250,0.61242675781250,-0.57708740234375,-0.39501953125000,-0.36859130859375,moving
188.85,3,0,3,3,-0.1800,0.0500,-0.2200,-3.0625,-3.1250,2.1250,0.61218261718750,-0.57745361328125,-0.39501953125000,-0.36846923828125,moving
188.86,3,0,3,3,-0.2400,0.0200,-0.1200,-2.7500,-5.3125,1.5000,0.61193847656250,-0.57781982421875,-0.39514160156250,-0.36816406250000,moving
188.87,3,0,3,3,-0.2200,0.0600,0.0900,-1.7500,-5.6875,1.1875,0.60980224609375,-0.58227539062500,-0.39550781250000,-0.36425781250000,moving
188.88,3,0,3,3,-0.2200,0.0200,0.1900,-1.7500,-6.6250,1.3125,0.60955810546875,-0.58264160156250,-0.39569091796875,-0.36389160156250,moving
188.89,3,0,3,3,-0.2300,0.0500,0.2300,-1.5000,-8.6875,1.3125,0.60919189453125,-0.58300781250000,-0.39605712890625,-0.36346435546875,moving
188.90,3,0,3,3,-0.1600,0.0700,0.2800,-0.8125,-9.1250,1.4375,0.60888671875000,-0.58343505859375,-0.39642333984375,-0.36291503906250,moving
188.91,3,0,3,3,-0.1600,0.1100,0.3000,0.2500,-8.4375,1.6875,0.60864257812500,-0.58374023437500,-0.39678955078125,-0.36242675781250,moving
188.92,3,0,3,3,-0.1900,0.1100,0.2700,0.8750,-7.1875,1.6875,0.60845947265625,-0.58398437500000,-0.39715576171875,-0.36193847656250,stop
188.93,3,0,3,3,-0.2000,0.1300,0.2400,0.9375,-5.5625,2.0625,0.60845947265625,-0.58410644531250,-0.39733886718750,-0.36151123046875,stop
188.94,3,0,3,3,-0.2300,0.1700,0.2300,0.8125,-4.2500,2.3750,0.60845947265625,-0.58422851562500,-0.39746093750000,-0.36120605468750,stop
188.95,3,0,3,3,-0.2900,0.2600,0.1000,0.0000,-2.6875,2.6250,0.60852050781250,-0.58435058593750,-0.39746093750000,-0.36096191406250,stop
188.96,3,0,3,3,-0.2100,0.2900,-0.0700,-0.5625,-1.8125,2.6875,0.60845947265625,-0.58453369140625,-0.39739990234375,-0.36077880859375,stop
188.97,3,0,3,3,-0.2000,0.3400,-0.1100,-1.1250,-2.3125,2.5625,0.60839843750000,-0.58477783203125,-0.39733886718750,-0.36053466796875,stop
188.98,3,0,3,3,-0.1600,0.4100,-0.0800,-1.2500,-4.7500,1.8750,0.60827636718750,-0.58502197265625,-0.39746093750000,-0.36022949218750,stop
188.99,3,0,3,3,-0.0800,0.4800,0.0100,-0.9375,-6.5000,1.4375,0.60803222656250,-0.58532714843750,-0.39770507812500,-0.35986328125000,stop
189.00,3,0,3,3,-0.0700,0.4600,0.1300,-0.6875,-7.4375,0.8750,0.60772705078125,-0.58563232421875,-0.39807128906250,-0.35943603515625,stop
189.01,3,0,3,3,-0.1200,0.3500,0.2000,-0.7500,-8.1875,0.4375,0.60742187500000,-0.58581542968750,-0.39855957031250,-0.35919189453125,stop
189.02,3,0,3,3,-0.1300,0.2300,0.2600,-0.5000,-7.8750,0.0625,0.60711669921875,-0.58593750000000,-0.39898681640625,-0.35894775390625,stop
189.03,3,0,3,3,-0.1200,0.0900,0.4200,-0.7500,-6.2500,0.4375,0.60687255859375,-0.58618164062500,-0.39929199218750,-0.35864257812500,stop
189.04,3,0,3,3,-0.1100,0.1300,0.4100,-1.1250,-4.3750,0.9375,0.60668945312500,-0.58642578125000,-0.39947509765625,-0.35839843750000,stop
189.05,3,0,3,3,-0.1600,0.1300,0.4500,-1.1250,-2.8750,1.0625,0.60656738281250,-0.58660888671875,-0.39953613281250,-0.35827636718750,stop
189.06,3,0,3,3,-0.1500,0.1100,0.3800,-0.6875,-1.4375,1.2500,0.60650634765625,-0.58673095703125,-0.39953613281250,-0.35815429687500,stop
189.09,3,0,3,3,-0.3000,0.0400,0.1400,-0.6250,-0.1875,1.4375,0.60662841796875,-0.58679199218750,-0.39923095703125,-0.35809326171875,stop
189.09,3,0,3,3,-0.2800,0.1000,0.1000,-0.6250,-1.4375,1.4375,0.60662841796875,-0.58691406250000,-0.39923095703125,-0.35803222656250,stop
189.10,3,0,3,3,-0.2100,0.1600,0.1200,-0.3125,-2.8750,1.3750,0.60662841796875,-0.58703613281250,-0.39929199218750,-0.35778808593750,stop
189.11,3,0,3,3,-0.2100,0.1400,0.1500,0.1875,-4.3750,0.8750,0.60650634765625,-0.58715820312500,-0.39947509765625,-0.35754394531250,stop
189.12,3,0,3,3,-0.2100,0.1700,0.1800,0.5000,-5.3125,0.6875,0.60638427734375,-0.58734130859375,-0.39971923828125,-0.35723876953125,stop
189.13,3,0,3,3,-0.1800,0.1800,0.1800,0.6875,-5.3125,0.8125,0.60626220703125,-0.58740234375000,-0.39996337890625,-0.35693359375000,stop
189.14,3,0,3,3,-0.0800,0.2200,0.1400,0.8750,-4.6875,1.0000,0.60620117187500,-0.58752441406250,-0.40020751953125,-0.35668945312500,stop
189.15,3,0,3,3,-0.1200,0.2600,0.1500,1.1250,-4.0625,0.7500,0.60614013671875,-0.58752441406250,-0.40039062500000,-0.35644531250000,stop
189.16,3,0,3,3,-0.1800,0.2700,0.1800,1.8750,-3.1875,0.4375,0.60614013671875,-0.58746337890625,-0.40063476562500,-0.35626220703125,stop
189.17,3,0,3,3,-0.2200,0.2400,0.1500,1.7500,-3.0625,0.3125,0.60614013671875,-0.58740234375000,-0.40087890625000,-0.35614013671875,stop
189.18,3,0,3,3,-0.2400,0.1400,0.1800,1.2500,-3.0625,0.0625,0.60614013671875,-0.58740234375000,-0.40106201171875,-0.35595703125000,stop
189.19,3,0,3,3,-0.2200,0.0800,0.1600,0.8750,-2.8125,0.0000,0.60614013671875,-0.58740234375000,-0.40124511718750,-0.35577392578125,stop
189.20,3,0,3,3,-0.2300,0.0300,0.1400,0.8125,-2.1250,0.0000,0.60614013671875,-0.58740234375000,-0.40136718750000,-0.35565185546875,stop
189.21,3,0,3,3,-0.2400,0.1100,0.1000,0.9375,-1.1875,0.3750,0.60614013671875,-0.58734130859375,-0.40142822265625,-0.35559082031250,stop
189.22,3,0,3,3,-0.2400,0.1600,0.0600,0.9375,-0.2500,0.5625,0.60620117187500,-0.58734130859375,-0.40142822265625,-0.35552978515625,stop
189.23,3,0,3,3,-0.1800,0.1400,0.0200,1.1250,0.0000,0.4375,0.60626220703125,-0.58728027343750,-0.40148925781250,-0.35546875000000,stop
189.24,3,0,3,3,-0.1600,0.1000,0.0300,1.2500,-0.7500,0.3125,0.60632324218750,-0.58721923828125,-0.40155029296875,-0.35540771484375,stop
189.25,3,0,3,3,-0.1300,0.1200,0.0900,1.1250,-2.1875,0.3125,0.60632324218750,-0.58721923828125,-0.40173339843750,-0.35528564453125,stop
189.26,3,0,3,3,-0.1800,0.0900,0.1500,0.9375,-3.2500,0.4375,0.60626220703125,-0.58721923828125,-0.40191650390625,-0.35510253906250,stop
189.27,3,0,3,3,-0.2300,0.1400,0.1500,0.8750,-3.1250,0.5000,0.60620117187500,-0.58728027343750,-0.40209960937500,-0.35491943359375,stop
189.28,3,0,3,3,-0.2300,0.1600,0.0500,0.6875,-2.6875,0.7500,0.60614013671875,-0.58734130859375,-0.40222167968750,-0.35473632812500,stop
189.29,3,0,3,3,-0.2300,0.1700,0.0000,0.6250,-2.3125,0.7500,0.60614013671875,-0.58740234375000,-0.40234375000000,-0.35455322265625,stop
189.30,3,0,3,3,-0.2000,0.1700,0.0000,0.8125,-2.1875,0.5625,0.60614013671875,-0.58740234375000,-0.40246582031250,-0.35437011718750,stop
189.31,3,0,3,3,-0.1800,0.1900,0.0000,1.0000,-2.4375,0.5000,0.60607910156250,-0.58746337890625,-0.40264892578125,-0.35418701171875,stop
189.32,3,0,3,3,-0.1100,0.2300,0.0900,1.1250,-2.7500,0.4375,0.60607910156250,-0.58746337890625,-0.40283203125000,-0.35406494140625,stop
189.33,3,0,3,3,-0.0700,0.2300,0.0700,1.4375,-2.7500,0.3750,0.60601806640625,-0.58740234375000,-0.40301513671875,-0.35388183593750,stop
189.34,3,0,3,3,-0.0600,0.2400,0.0800,1.4375,-2.3750,0.4375,0.60601806640625,-0.58740234375000,-0.40325927734375,-0.35375976562500,stop
189.35,3,0,3,3,-0.0700,0.2600,0.0800,1.5000,-0.8125,0.3750,0.60601806640625,-0.58728027343750,-0.40338134765625,-0.35369873046875,stop
189.36,3,0,3,3,-0.2500,0.2500,0.0700,1.4375,0.0000,0.3750,0.60614013671875,-0.58715820312500,-0.40344238281250,-0.35369873046875,stop
189.37,3,0,3,3,-0.3200,0.2200,0.0300,1.2500,0.8750,0.0000,0.60620117187500,-0.58703613281250,-0.40344238281250,-0.35369873046875,stop
189.38,3,0,3,3,-0.3100,0.2000,0.0600,0.8750,0.8750,0.1250,0.60632324218750,-0.58697509765625,-0.40338134765625,-0.35375976562500,stop
189.41,3,0,3,3,-0.1800,0.2600,0.0900,0.4375,-0.5000,0.2500,0.60626220703125,-0.58691406250000,-0.40344238281250,-0.35382080078125,stop
189.41,3,0,3,3,-0.1700,0.2600,0.0800,0.3125,-1.3125,0.0000,0.60626220703125,-0.58691406250000,-0.40350341796875,-0.35375976562500,stop
189.42,3,0,3,3,-0.1900,0.1900,0.0800,0.0000,-1.7500,-0.1875,0.60620117187500,-0.58697509765625,-0.40362548828125,-0.35369873046875,stop
189.43,3,0,3,3,-0.2000,0.0800,0.0500,0.0000,-1.3750,-0.1875,0.60614013671875,-0.58697509765625,-0.40368652343750,-0.35369873046875,stop
189.44,3,0,3,3,-0.2300,0.0600,0.0400,-0.1250,-0.6250,-0.1250,0.60614013671875,-0.58697509765625,-0.40374755859375,-0.35363769531250,stop
189.45,3,0,3,3,-0.2400,0.1100,0.0000,-0.0625,0.1875,0.1250,0.60614013671875,-0.58697509765625,-0.40374755859375,-0.35363769531250,stop
189.46,3,0,3,3,-0.2400,0.1000,0.0300,0.0000,0.8125,0.1875,0.60614013671875,-0.58697509765625,-0.40368652343750,-0.35369873046875,stop
189.47,3,0,3,3,-0.1700,0.1300,0.0000,0.0000,0.5625,0.1875,0.60614013671875,-0.58691406250000,-0.40368652343750,-0.35369873046875,stop
189.48,3,0,3,3,-0.2000,0.1800,0.0100,0.0625,0.1875,0.0625,0.60614013671875,-0.58691406250000,-0.40368652343750,-0.35375976562500,stop
189.49,3,0,3,3,-0.2300,0.1600,0.0300,0.4375,-0.4375,-0.1875,0.60614013671875,-0.58691406250000,-0.40368652343750,-0.35375976562500,stop
189.50,3,0,3,3,-0.2900,0.0900,0.0100,0.3125,-1.1875,-0.4375,0.60614013671875,-0.58697509765625,-0.40374755859375,-0.35369873046875,stop
189.51,3,0,3,3,-0.3000,0.0500,0.0100,0.1875,-1.3125,-0.2500,0.60607910156250,-0.58697509765625,-0.40380859375000,-0.35363769531250,stop
189.52,3,0,3,3,-0.2600,0.0400,-0.0200,0.2500,-1.3750,0.0000,0.60601806640625,-0.58703613281250,-0.40386962890625,-0.35351562500000,stop
189.53,3,0,3,3,-0.2300,0.0800,0.0000,0.3125,-1.4375,0.4375,0.60595703125000,-0.58709716796875,-0.40399169921875,-0.35345458984375,stop
189.54,3,0,3,3,-0.1200,0.2100,0.0400,0.5000,-1.6250,0.3125,0.60589599609375,-0.58715820312500,-0.40405273437500,-0.35339355468750,stop
189.55,3,0,3,3,-0.0600,0.2300,0.0900,0.5000,-2.0000,0.1250,0.60583496093750,-0.58715820312500,-0.40417480468750,-0.35333251953125,stop
189.56,3,0,3,3,-0.0800,0.2800,0.1000,0.1875,-2.1250,0.0000,0.60577392578125,-0.58721923828125,-0.40429687500000,-0.35321044921875,stop
189.57,3,0,3,3,-0.1700,0.2600,0.1200,-0.0625,-1.6875,0.0000,0.60571289062500,-0.58721923828125,-0.40441894531250,-0.35321044921875,stop
189.58,3,0,3,3,-0.2200,0.1900,0.0800,-0.2500,-1.0625,-0.0625,0.60565185546875,-0.58721923828125,-0.40447998046875,-0.35314941406250,stop
189.59,3,0,3,3,-0.2400,0.1700,0.0200,-0.3125,-0.3750,0.0000,0.60565185546875,-0.58721923828125,-0.40447998046875,-0.35321044921875,stop
189.60,3,0,3,3,-0.2100,0.1900,-0.0100,-0.3125,-0.1875,0.0000,0.60565185546875,-0.58721923828125,-0.40447998046875,-0.35321044921875,stop
189.61,3,0,3,3,-0.1800,0.1900,0.0300,-0.1875,-0.3750,0.0000,0.60565185546875,-0.58715820312500,-0.40454101562500,-0.35321044921875,stop
189.62,3,0,3,3,-0.1800,0.1800,0.0500,-0.0625,-1.0625,-0.2500,0.60559082031250,-0.58721923828125,-0.40460205078125,-0.35321044921875,stop
189.63,3,0,3,3,-0.1900,0.1600,0.0900,0.0000,-0.9375,-0.3750,0.60559082031250,-0.58721923828125,-0.40466308593750,-0.35314941406250,stop
189.64,3,0,3,3,-0.1700,0.1600,0.0700,-0.0625,-0.6875,-0.4375,0.60552978515625,-0.58721923828125,-0.40466308593750,-0.35314941406250,stop
189.65,3,0,3,3,-0.1800,0.1500,0.0800,-0.1250,-0.5625,-0.6250,0.60552978515625,-0.58721923828125,-0.40472412109375,-0.35314941406250,stop
189.66,3,0,3,3,-0.1800,0.1700,0.0700,-0.1250,-0.1250,-0.6250,0.60552978515625,-0.58715820312500,-0.40478515625000,-0.35321044921875,stop
189.67,3,0,3,3,-0.2200,0.1700,0.0600,-0.3750,-0.1250,-0.8125,0.60546875000000,-0.58709716796875,-0.40484619140625,-0.35327148437500,stop
189.68,3,0,3,3,-0.2400,0.1900,0.0200,-0.3125,-0.1875,-1.0000,0.60546875000000,-0.58709716796875,-0.40490722656250,-0.35333251953125,stop
189.69,3,0,3,3,-0.2300,0.1900,0.0100,-0.3750,-0.4375,-1.0000,0.60540771484375,-0.58703613281250,-0.40496826171875,-0.35339355468750,stop
189.70,3,0,3,3,-0.2300,0.1700,0.0000,-0.5000,-0.8750,-0.9375,0.60534667968750,-0.58703613281250,-0.40502929687500,-0.35339355468750,stop
189.73,3,0,3,3,-0.1400,0.1900,0.0600,-0.1875,-1.7500,-1.1875,0.60516357421875,-0.58703613281250,-0.40533447265625,-0.35339355468750,stop
189.73,3,0,3,3,-0.1200,0.1400,0.1100,0.0000,-1.4375,-1.1875,0.60504150390625,-0.58697509765625,-0.40551757812500,-0.35339355468750,stop
189.74,3,0,3,3,-0.1100,0.1500,0.1300,-0.1250,-0.8750,-1.0625,0.60504150390625,-0.58697509765625,-0.40563964843750,-0.35345458984375,stop
189.75,3,0,3,3,-0.1400,0.1700,0.1500,-0.3125,0.3125,-0.8750,0.60498046875000,-0.58691406250000,-0.40563964843750,-0.35351562500000,stop
189.76,3,0,3,3,-0.2000,0.2100,0.0900,-0.3750,1.3750,-0.7500,0.60504150390625,-0.58679199218750,-0.40563964843750,-0.35363769531250,stop
189.77,3,0,3,3,-0.2000,0.2200,0.0500,-0.2500,2.0000,-0.6250,0.60510253906250,-0.58666992187500,-0.40557861328125,-0.35382080078125,stop
189.78,3,0,3,3,-0.1800,0.2000,0.0100,-0.5000,1.5625,-0.6250,0.60510253906250,-0.58660888671875,-0.40551757812500,-0.35394287109375,stop
189.79,3,0,3,3,-0.1700,0.1900,0.0100,-0.5625,1.0000,-0.8125,0.60510253906250,-0.58654785156250,-0.40551757812500,-0.35412597656250,stop
189.80,3,0,3,3,-0.1400,0.2300,0.0800,-0.8125,0.1875,-1.0625,0.60498046875000,-0.58654785156250,-0.40557861328125,-0.35418701171875,stop
189.81,3,0,3,3,-0.1600,0.2400,0.0700,-0.8750,-0.0625,-1.0000,0.60491943359375,-0.58648681640625,-0.40557861328125,-0.35430908203125,stop
189.82,3,0,3,3,-0.1500,0.2300,0.0800,-0.5625,0.0000,-1.1250,0.60485839843750,-0.58648681640625,-0.40563964843750,-0.35443115234375,stop
189.83,3,0,3,3,-0.1000,0.2700,0.1000,-0.3750,0.5000,-1.0625,0.60479736328125,-0.58636474609375,-0.40576171875000,-0.35455322265625,stop
189.84,3,0,3,3,-0.0400,0.3000,0.1300,-0.4375,0.8125,-1.0625,0.60479736328125,-0.58624267578125,-0.40576171875000,-0.35473632812500,stop
189.85,3,0,3,3,0.0000,0.3200,0.1600,-0.3125,0.5625,-1.1875,0.60479736328125,-0.58612060546875,-0.40588378906250,-0.35491943359375,stop
189.86,3,0,3,3,-0.0200,0.3400,0.1800,-0.1875,1.3750,-1.5000,0.60479736328125,-0.58587646484375,-0.40594482421875,-0.35522460937500,stop
189.87,3,0,3,3,-0.0400,0.3200,0.0000,-0.3750,3.0000,-1.6250,0.60479736328125,-0.58563232421875,-0.40594482421875,-0.35559082031250,stop
189.88,3,0,3,3,-0.0900,0.2600,-0.0300,-0.8750,4.7500,-1.8750,0.60485839843750,-0.58544921875000,-0.40576171875000,-0.35601806640625,stop
189.89,3,0,3,3,-0.1000,0.2000,-0.0500,-1.5000,5.6250,-2.4375,0.60485839843750,-0.58526611328125,-0.40557861328125,-0.35650634765625,stop
189.90,3,0,3,3,-0.0900,0.2800,0.0000,-1.8125,5.8750,-2.7500,0.60491943359375,-0.58502197265625,-0.40539550781250,-0.35705566406250,stop
189.91,3,0,3,3,-0.0200,0.3700,0.0200,-1.6875,5.8750,-2.9375,0.60485839843750,-0.58477783203125,-0.40527343750000,-0.35766601562500,stop
189.92,3,0,3,3,0.0700,0.4200,-0.0100,-1.2500,5.6875,-3.7500,0.60485839843750,-0.58447265625000,-0.40521240234375,-0.35827636718750,stop
189.93,3,0,3,3,0.1300,0.4700,-0.0700,-1.4375,5.9375,-5.0000,0.60473632812500,-0.58410644531250,-0.40521240234375,-0.35900878906250,stop
189.94,3,0,3,3,0.1500,0.5300,-0.0700,-1.7500,7.2500,-6.5000,0.60455322265625,-0.58367919921875,-0.40527343750000,-0.35998535156250,stop
189.95,3,0,3,3,0.1000,0.5200,-0.1000,-3.0000,9.0625,-7.6875,0.60430908203125,-0.58312988281250,-0.40533447265625,-0.36114501953125,stop
189.96,3,0,3,3,0.0500,0.5100,-0.0600,-4.3125,10.8750,-8.5000,0.60406494140625,-0.58264160156250,-0.40527343750000,-0.36248779296875,stop
189.97,3,0,3,3,0.0000,0.5100,-0.1000,-5.6875,12.1250,-9.2500,0.60375976562500,-0.58215332031250,-0.40515136718750,-0.36395263671875,stop
189.98,3,0,3,3,-0.1300,0.3400,-0.2000,-7.0625,13.0625,-10.0000,0.60339355468750,-0.58172607421875,-0.40490722656250,-0.36553955078125,stop
189.99,3,0,3,3,-0.1200,0.2700,-0.2300,-7.8125,13.8125,-10.5000,0.60296630859375,-0.58129882812500,-0.40466308593750,-0.36712646484375,stop
190.00,3,0,3,3,-0.1900,0.2100,-0.2400,-8.5000,14.3125,-10.8125,0.60260009765625,-0.58093261718750,-0.40429687500000,-0.36871337890625,stop
190.01,3,0,3,3,-0.1900,0.1600,-0.2600,-9.0625,14.0625,-11.2500,0.60217285156250,-0.58056640625000,-0.40393066406250,-0.37036132812500,stop
190.04,3,0,3,3,-0.1800,-0.0500,-0.3600,-10.5625,13.1250,-11.6250,0.60113525390625,-0.58013916015625,-0.40313720703125,-0.37353515625000,stop
190.04,3,0,3,3,-0.2100,-0.1200,-0.4500,-11.3750,14.5000,-11.6250,0.60058593750000,-0.58001708984375,-0.40264892578125,-0.37512207031250,stop
190.05,3,0,3,3,-0.3300,-0.3200,-0.7200,-12.0625,18.5625,-12.2500,0.60021972656250,-0.57965087890625,-0.40191650390625,-0.37713623046875,stop
190.06,3,0,3,3,-0.3800,-0.4300,-0.8400,-12.6250,23.8750,-12.3125,0.59997558593750,-0.57904052734375,-0.40087890625000,-0.37945556640625,stop
190.07,3,0,3,3,-0.5300,-0.5300,-0.8700,-13.0625,28.1875,-12.0625,0.59991455078125,-0.57836914062500,-0.39959716796875,-0.38195800781250,stop
190.08,3,0,3,3,-0.6200,-0.6600,-0.9100,-13.4375,30.4375,-11.3750,0.59991455078125,-0.57769775390625,-0.39813232421875,-0.38458251953125,stop
190.09,3,0,3,3,-0.8700,-0.8200,-1.0500,-14.1250,30.0625,-10.3125,0.59991455078125,-0.57702636718750,-0.39660644531250,-0.38714599609375,stop
190.10,3,0,3,3,-0.9900,-0.9400,-1.1700,-14.3750,27.9375,-9.0625,0.59979248046875,-0.57653808593750,-0.39508056640625,-0.38952636718750,stop
190.11,3,0,3,3,-1.1500,-1.0700,-1.2200,-14.5625,24.3750,-7.5000,0.59967041015625,-0.57623291015625,-0.39373779296875,-0.39160156250000,stop
190.12,3,0,3,3,-1.1500,-1.0700,-1.2200,-14.5625,24.3750,-7.5000,0.59967041015625,-0.57623291015625,-0.39373779296875,-0.39160156250000,stop
190.12,3,0,3,3,-1.5800,-1.3000,-1.4000,-14.2500,19.3750,-5.7500,0.59942626953125,-0.57611083984375,-0.39251708984375,-0.39337158203125,stop
190.13,3,0,3,3,-1.8800,-1.3800,-1.4200,-13.7500,13.3125,-3.6875,0.59906005859375,-0.57623291015625,-0.39154052734375,-0.39471435546875,stop
190.14,3,0,3,3,-2.1800,-1.4200,-1.4800,-12.8125,9.6250,-1.4375,0.59869384765625,-0.57653808593750,-0.39062500000000,-0.39569091796875,stop
190.15,3,0,3,3,-2.4700,-1.4500,-1.6000,-12.4375,5.6250,1.0000,0.59826660156250,-0.57702636718750,-0.38989257812500,-0.39636230468750,stop
190.16,3,0,3,3,-2.8400,-1.7100,-1.9300,-11.6875,-0.3750,4.1250,0.59783935546875,-0.57781982421875,-0.38928222656250,-0.39654541015625,stop
190.17,3,0,3,3,-2.9300,-1.8800,-2.0300,-9.7500,-7.8750,7.8125,0.59729003906250,-0.57885742187500,-0.38891601562500,-0.39605712890625,stop
190.18,3,0,3,3,-3.0500,-2.1000,-2.0200,-6.6875,-14.5000,11.8125,0.59686279296875,-0.58013916015625,-0.38885498046875,-0.39489746093750,stop
190.19,3,0,3,3,-3.0800,-2.1700,-1.9100,-2.5625,-18.9375,15.9375,0.59667968750000,-0.58148193359375,-0.38897705078125,-0.39318847656250,stop
190.20,3,0,3,3,-3.6000,-2.1800,-1.7300,1.6875,-25.1875,19.8125,0.59655761718750,-0.58294677734375,-0.38928222656250,-0.39080810546875,stop
190.21,3,0,3,3,-3.6400,-1.9300,-1.6800,5.8125,-40.5000,22.8750,0.59625244140625,-0.58477783203125,-0.39044189453125,-0.38732910156250,stop
190.22,3,0,3,3,-3.7400,-1.8600,-1.5600,8.8750,-54.8750,26.3750,0.59570312500000,-0.58709716796875,-0.39227294921875,-0.38281250000000,stop
190.23,3,0,3,3,-3.5100,-1.8900,-1.3600,12.7500,-68.6250,31.8125,0.59509277343750,-0.58984375000000,-0.39459228515625,-0.37719726562500,stop
190.24,3,0,3,3,-3.3100,-1.9300,-1.0900,17.3125,-78.5625,36.7500,0.59448242187500,-0.59277343750000,-0.39733886718750,-0.37060546875000,stop
190.25,3,0,3,3,-3.1400,-1.9700,-0.8900,22.8750,-87.9375,41.6250,0.59393310546875,-0.59588623046875,-0.40045166015625,-0.36303710937500,stop
190.26,3,0,3,3,-3.0300,-2.0400,-0.5700,30.1875,-95.6250,47.3125,0.59362792968750,-0.59899902343750,-0.40386962890625,-0.35455322265625,stop
190.27,3,0,3,3,-2.8100,-2.3600,-0.3900,36.0000,-100.0625,52.6875,0.59356689453125,-0.60211181640625,-0.40734863281250,-0.34527587890625,stop
190.28,3,0,3,3,-2.6500,-2.3500,-0.1800,40.6875,-101.9375,57.6875,0.59381103515625,-0.60510253906250,-0.41082763671875,-0.33538818359375,stop
190.29,3,0,3,3,-2.5900,-2.3200,-0.0700,45.1875,-100.9375,61.6875,0.59429931640625,-0.60791015625000,-0.41406250000000,-0.32519531250000,stop
190.30,3,0,3,3,-2.4000,-2.1800,-0.3500,49.5625,-100.5000,65.8125,0.59515380859375,-0.61059570312500,-0.41717529296875,-0.31463623046875,stop
190.31,3,0,3,3,-2.1900,-1.8800,-0.5400,55.2500,-100.2500,69.3750,0.59631347656250,-0.61297607421875,-0.42010498046875,-0.30358886718750,stop
190.32,3,0,3,3,-1.8500,-1.3700,-0.5300,64.3750,-103.5625,72.0625,0.59783935546875,-0.61499023437500,-0.42333984375000,-0.29187011718750,stop
190.33,3,0,3,3,-1.3400,-0.7200,-0.3000,72.0000,-107.1875,74.8125,0.59960937500000,-0.61669921875000,-0.42663574218750,-0.27954101562500,stop
190.36,3,0,3,3,1.8900,0.9800,0.3900,65.1875,-110.9375,76.8125,0.60217285156250,-0.62054443359375,-0.43310546875000,-0.25439453125000,stop
190.36,3,0,3,3,2.5500,1.8100,0.8100,66.3125,-106.6875,72.0000,0.60333251953125,-0.62213134765625,-0.43621826171875,-0.24224853515625,stop
190.37,3,0,3,3,2.8300,2.4500,0.9200,67.1250,-108.0000,67.4375,0.60424804687500,-0.62341308593750,-0.43957519531250,-0.23022460937500,stop
190.38,3,0,3,3,3.0300,3.3500,0.8700,70.4375,-109.5625,62.1250,0.60504150390625,-0.62426757812500,-0.44335937500000,-0.21826171875000,stop
190.39,3,0,3,3,3.0300,3.3500,0.8700,70.4375,-109.5625,62.1250,0.60504150390625,-0.62426757812500,-0.44335937500000,-0.21826171875000,stop
190.39,3,0,3,3,3.2100,3.8700,0.9700,75.5625,-98.0625,56.8125,0.60644531250000,-0.62432861328125,-0.44683837890625,-0.20697021484375,stop
190.40,3,0,3,3,3.5200,4.6500,1.1500,81.1250,-72.5625,51.5625,0.60894775390625,-0.62329101562500,-0.44927978515625,-0.19708251953125,stop
190.41,3,0,3,3,4.6800,5.8300,1.1700,77.9375,-59.0625,43.7500,0.61157226562500,-0.62188720703125,-0.45135498046875,-0.18841552734375,stop
190.42,3,0,3,3,5.5200,6.1200,0.5500,62.2500,-63.0625,37.7500,0.61309814453125,-0.62109375000000,-0.45367431640625,-0.18054199218750,stop
190.43,3,0,3,3,6.4300,6.1700,0.0700,48.8125,-69.0000,31.0000,0.61346435546875,-0.62078857421875,-0.45642089843750,-0.17321777343750,stop
190.44,3,0,3,3,7.2400,6.0200,-0.4800,38.6250,-60.7500,21.2500,0.61346435546875,-0.62048339843750,-0.45910644531250,-0.16723632812500,stop
190.45,3,0,3,3,7.3900,5.1100,-0.1700,31.3750,-47.2500,11.0625,0.61340332031250,-0.61987304687500,-0.46148681640625,-0.16284179687500,stop
190.46,3,0,3,3,6.5900,4.4800,0.6000,32.1250,-35.8750,3.6250,0.61370849609375,-0.61883544921875,-0.46368408203125,-0.15936279296875,stop
190.47,3,0,3,3,5.7900,3.7900,1.1100,25.8750,-32.8750,-2.1875,0.61376953125000,-0.61779785156250,-0.46594238281250,-0.15667724609375,stop
190.48,3,0,3,3,5.4100,3.5500,1.4900,14.7500,-21.1250,-7.8750,0.61358642578125,-0.61694335937500,-0.46771240234375,-0.15539550781250,stop
190.49,3,0,3,3,5.4200,3.6300,1.3600,5.0625,-1.9375,-13.4375,0.61358642578125,-0.61614990234375,-0.46862792968750,-0.15582275390625,stop
190.50,3,0,3,3,5.6000,3.6400,0.8900,-3.8125,11.5000,-20.6875,0.61358642578125,-0.61535644531250,-0.46905517578125,-0.15777587890625,stop
190.51,3,0,3,3,5.6500,3.3700,0.5500,-11.2500,23.5625,-26.8750,0.61352539062500,-0.61450195312500,-0.46911621093750,-0.16094970703125,stop
190.52,3,0,3,3,6.3600,2.9100,-0.3900,-20.3750,30.8750,-31.3750,0.61328125000000,-0.61383056640625,-0.46887207031250,-0.16516113281250,stop
190.53,3,0,3,3,6.5000,2.8200,-0.6300,-30.4375,34.6875,-38.4375,0.61248779296875,-0.61334228515625,-0.46868896484375,-0.17041015625000,stop
190.54,3,0,3,3,6.6000,2.8600,-0.9400,-38.2500,37.5000,-44.3750,0.61126708984375,-0.61297607421875,-0.46850585937500,-0.17639160156250,stop
190.55,3,0,3,3,6.3100,3.1000,-1.1500,-47.6250,38.1875,-50.5000,0.60949707031250,-0.61279296875000,-0.46844482421875,-0.18310546875000,stop
190.56,3,0,3,3,5.3900,3.3600,-1.0300,-58.0000,36.2500,-54.3750,0.60699462890625,-0.61303710937500,-0.46850585937500,-0.19036865234375,stop
190.57,3,0,3,3,4.9000,3.2700,-0.8600,-67.5000,34.5000,-58.0625,0.60375976562500,-0.61364746093750,-0.46868896484375,-0.19812011718750,stop
190.58,3,0,3,3,4.4900,3.1600,-0.5900,-78.4375,38.5625,-61.5625,0.60003662109375,-0.61450195312500,-0.46862792968750,-0.20666503906250,stop
190.59,3,0,3,3,3.9500,3.1300,-0.3900,-85.5000,49.2500,-65.3125,0.59625244140625,-0.61535644531250,-0.46801757812500,-0.21624755859375,stop
190.60,3,0,3,3,2.5900,2.9400,-0.0400,-90.4375,57.0000,-69.6250,0.59234619140625,-0.61608886718750,-0.46710205078125,-0.22668457031250,stop
190.61,3,0,3,3,1.8100,2.7600,0.0100,-91.2500,67.3125,-74.1250,0.58868408203125,-0.61633300781250,-0.46575927734375,-0.23791503906250,stop
190.62,3,0,3,3,1.3400,2.4900,0.1100,-91.0000,80.1250,-79.0625,0.58532714843750,-0.61602783203125,-0.46405029296875,-0.25006103515625,stop
190.63,3,0,3,3,0.3400,1.6200,0.2700,-90.6250,91.1250,-83.0625,0.58227539062500,-0.61523437500000,-0.46185302734375,-0.26287841796875,stop
190.64,3,0,3,3,-0.0300,0.9500,0.4000,-90.6250,99.3750,-87.3125,0.57934570312500,-0.61395263671875,-0.45941162109375,-0.27636718750000,stop
190.65,3,0,3,3,-0.0300,0.9500,0.4000,-90.6250,99.3750,-87.3125,0.57934570312500,-0.61395263671875,-0.45941162109375,-0.27636718750000,stop
190.65,3,0,3,3,-0.4600,0.2000,0.3900,-91.3750,109.5625,-92.2500,0.57653808593750,-0.61206054687500,-0.45660400390625,-0.29058837890625,stop
190.66,3,0,3,3,-0.7200,-0.6600,0.3600,-94.1875,115.5625,-96.8125,0.57360839843750,-0.60992431640625,-0.45355224609375,-0.30541992187500,stop
190.69,3,0,3,3,-1.9600,-3.1400,-0.0500,-90.5625,111.8125,-104.2500,0.56701660156250,-0.60455322265625,-0.44799804687500,-0.33508300781250,stop
190.69,3,0,3,3,-2.0400,-3.8900,-0.5200,-93.7500,113.3125,-105.2500,0.56335449218750,-0.60162353515625,-0.44519042968750,-0.34991455078125,stop
190.70,3,0,3,3,-2.5900,-4.5000,-0.9300,-92.4375,116.3750,-105.8750,0.55969238281250,-0.59838867187500,-0.44219970703125,-0.36486816406250,stop
190.71,3,0,3,3,-3.3300,-5.3800,-1.7900,-84.5625,113.3750,-103.6250,0.55627441406250,-0.59478759765625,-0.43933105468750,-0.37908935546875,stop
190.72,3,0,3,3,-3.5400,-5.8600,-2.4700,-78.6250,100.1875,-99.0625,0.55273437500000,-0.59143066406250,-0.43701171875000,-0.39208984375000,stop
190.73,3,0,3,3,-3.5900,-6.4100,-3.1100,-67.5000,78.3125,-91.6250,0.54907226562500,-0.58843994140625,-0.43560791015625,-0.40313720703125,stop
190.74,3,0,3,3,-3.9300,-6.9100,-3.0000,-44.3750,56.9375,-82.8750,0.54595947265625,-0.58532714843750,-0.43554687500000,-0.41174316406250,stop
190.75,3,0,3,3,-4.2800,-6.8500,-2.5800,-13.3750,44.8750,-74.3750,0.54431152343750,-0.58154296875000,-0.43676757812500,-0.41809082031250,stop
190.76,3,0,3,3,-4.4700,-6.8600,-2.4400,13.5625,28.9375,-67.2500,0.54364013671875,-0.57720947265625,-0.43927001953125,-0.42224121093750,stop
190.77,3,0,3,3,-4.4800,-6.8900,-2.4500,30.7500,7.6875,-58.7500,0.54333496093750,-0.57318115234375,-0.44299316406250,-0.42425537109375,stop
190.78,3,0,3,3,-4.1500,-6.4300,-1.8900,39.6875,-3.7500,-50.3125,0.54327392578125,-0.56951904296875,-0.44714355468750,-0.42492675781250,stop
190.79,3,0,3,3,-3.8200,-6.1800,-1.4300,42.8750,-1.9375,-40.8125,0.54382324218750,-0.56591796875000,-0.45086669921875,-0.42510986328125,stop
190.80,3,0,3,3,-3.3700,-6.0700,-1.2000,34.9375,4.8750,-27.6875,0.54473876953125,-0.56298828125000,-0.45324707031250,-0.42523193359375,stop
190.81,3,0,3,3,-3.1900,-5.7400,-0.8600,21.3750,13.1875,-13.7500,0.54577636718750,-0.56097412109375,-0.45410156250000,-0.42572021484375,stop
190.82,3,0,3,3,-3.0100,-5.6700,-0.8400,15.1250,19.7500,1.7500,0.54736328125000,-0.55957031250000,-0.45361328125000,-0.42596435546875,stop
190.83,3,0,3,3,-3.1500,-5.7900,-1.1200,8.0000,26.6250,16.6250,0.54943847656250,-0.55889892578125,-0.45184326171875,-0.42614746093750,stop
190.84,3,0,3,3,-3.2500,-5.7600,-1.2200,7.4375,30.2500,30.7500,0.55218505859375,-0.55859375000000,-0.44915771484375,-0.42584228515625,stop
190.85,3,0,3,3,-3.2500,-5.7000,-2.0400,11.6250,28.0000,42.7500,0.55541992187500,-0.55871582031250,-0.44610595703125,-0.42462158203125,stop
190.86,3,0,3,3,-3.2000,-5.3900,-2.4400,18.3750,20.0625,50.7500,0.55902099609375,-0.55908203125000,-0.44329833984375,-0.42242431640625,stop
190.87,3,0,3,3,-3.3900,-5.0300,-2.7800,26.3125,4.3750,55.0625,0.56250000000000,-0.55975341796875,-0.44134521484375,-0.41888427734375,stop
190.88,3,0,3,3,-3.4000,-4.7200,-2.8000,34.5000,-16.1250,61.6875,0.56585693359375,-0.56103515625000,-0.44036865234375,-0.41369628906250,stop
190.89,3,0,3,3,-3.0100,-4.4600,-2.6900,42.1875,-34.2500,69.1875,0.56909179687500,-0.56286621093750,-0.44012451171875,-0.40692138671875,stop
190.90,3,0,3,3,-2.7200,-4.3700,-2.4600,46.1250,-48.5625,77.5000,0.57220458984375,-0.56530761718750,-0.44030761718750,-0.39886474609375,stop
190.91,3,0,3,3,-2.5500,-4.2100,-2.1900,51.5000,-55.3750,85.8750,0.57562255859375,-0.56799316406250,-0.44061279296875,-0.38983154296875,stop
190.92,3,0,3,3,-2.5500,-4.2100,-2.1900,51.5000,-55.3750,85.8750,0.57562255859375,-0.56799316406250,-0.44061279296875,-0.38983154296875,moving
190.92,3,0,3,3,-2.4400,-3.7200,-1.6600,58.8125,-61.2500,95.3750,0.57940673828125,-0.57073974609375,-0.44085693359375,-0.37963867187500,moving
190.93,3,0,3,3,-2.3500,-3.3700,-1.6200,64.1875,-67.5625,104.0625,0.58343505859375,-0.57373046875000,-0.44116210937500,-0.36846923828125,moving
190.94,3,0,3,3,-2.0000,-2.9200,-1.5600,68.3125,-76.3750,111.7500,0.58746337890625,-0.57702636718750,-0.44158935546875,-0.35626220703125,moving
190.95,3,0,3,3,-1.6400,-2.5100,-1.5300,72.8750,-82.5000,118.0625,0.59161376953125,-0.58038330078125,-0.44207763671875,-0.34313964843750,moving
190.96,3,0,3,3,-0.7900,-1.5000,-1.2300,74.4375,-81.7500,123.5625,0.59588623046875,-0.58374023437500,-0.44219970703125,-0.32965087890625,moving
190.97,3,0,3,3,-0.1500,-0.7800,-1.1900,70.3750,-79.5625,128.1250,0.60003662109375,-0.58728027343750,-0.44171142578125,-0.31616210937500,moving
190.98,3,0,3,3,0.6000,0.0200,-1.1700,60.2500,-80.0000,129.8125,0.60357666015625,-0.59130859375000,-0.44085693359375,-0.30285644531250,moving
190.99,3,0,3,3,1.3500,0.8400,-1.1600,49.0625,-77.1250,128.5625,0.60650634765625,-0.59570312500000,-0.43945312500000,-0.29010009765625,moving
191.02,3,0,3,3,4.1500,4.3500,-1.4600,24.4375,-66.6250,109.3750,0.61004638671875,-0.60473632812500,-0.43621826171875,-0.26800537109375,moving
191.02,3,0,3,3,4.9200,5.9600,-1.7500,9.5000,-65.3750,88.0000,0.61010742187500,-0.60913085937500,-0.43524169921875,-0.25946044921875,moving
191.03,3,0,3,3,6.6600,8.8200,-2.3700,-2.5000,-75.3750,68.9375,0.60864257812500,-0.61358642578125,-0.43548583984375,-0.25183105468750,moving
191.04,3,0,3,3,6.4700,9.2100,-1.7700,2.5000,-74.8125,57.3125,0.60717773437500,-0.61724853515625,-0.43640136718750,-0.24462890625000,moving
191.05,3,0,3,3,6.2100,9.9400,-1.1700,19.0625,-75.8750,50.3125,0.60638427734375,-0.61981201171875,-0.43811035156250,-0.23712158203125,moving
191.06,3,0,3,3,6.6100,10.1800,-0.7800,26.4375,-81.9375,43.3125,0.60552978515625,-0.62176513671875,-0.44061279296875,-0.22937011718750,moving
191.07,3,0,3,3,6.4900,11.0900,0.5500,31.6250,-73.1250,31.6875,0.60504150390625,-0.62274169921875,-0.44335937500000,-0.22247314453125,moving
191.08,3,0,3,3,6.3400,10.7000,1.3300,32.0625,-59.5000,18.6875,0.60485839843750,-0.62292480468750,-0.44610595703125,-0.21704101562500,moving
191.09,3,0,3,3,6.4200,8.5500,1.9000,26.7500,-49.4375,11.8125,0.60455322265625,-0.62292480468750,-0.44860839843750,-0.21270751953125,moving
191.10,3,0,3,3,6.4500,5.9100,2.1000,8.2500,-49.5000,2.7500,0.60308837890625,-0.62347412109375,-0.45123291015625,-0.20953369140625,moving
191.11,3,0,3,3,6.1900,4.3600,2.3700,-18.2500,-40.4375,-13.1250,0.60028076171875,-0.62469482421875,-0.45373535156250,-0.20874023437500,moving
191.12,3,0,3,3,5.8300,4.1200,2.5100,-35.7500,-15.5000,-28.1875,0.59716796875000,-0.62567138671875,-0.45544433593750,-0.21081542968750,moving
191.13,3,0,3,3,5.4000,4.0100,2.2800,-48.7500,-0.6875,-37.9375,0.59375000000000,-0.62670898437500,-0.45672607421875,-0.21472167968750,moving
191.14,3,0,3,3,4.4700,4.3600,1.6700,-57.6875,17.2500,-46.6875,0.59039306640625,-0.62750244140625,-0.45727539062500,-0.22045898437500,moving
191.15,3,0,3,3,4.2800,4.3700,1.4200,-59.6250,42.5000,-56.3750,0.58770751953125,-0.62744140625000,-0.45709228515625,-0.22808837890625,moving
191.16,3,0,3,3,4.0200,4.1900,1.2300,-57.8750,62.8125,-67.5000,0.58563232421875,-0.62640380859375,-0.45642089843750,-0.23730468750000,moving
191.17,3,0,3,3,3.7500,3.8300,0.9400,-56.5000,75.6875,-77.3125,0.58392333984375,-0.62457275390625,-0.45556640625000,-0.24768066406250,moving
191.18,3,0,3,3,3.3100,2.6700,0.2500,-57.8750,78.5000,-86.1875,0.58197021484375,-0.62237548828125,-0.45507812500000,-0.25872802734375,moving
191.19,3,0,3,3,2.7100,1.9200,0.0900,-56.5625,71.4375,-94.6250,0.57952880859375,-0.61981201171875,-0.45526123046875,-0.26965332031250,moving
191.20,3,0,3,3,2.7100,1.9200,0.0900,-56.5625,71.4375,-94.6250,0.57952880859375,-0.61981201171875,-0.45526123046875,-0.26965332031250,moving
191.21,3,0,3,3,2.1400,1.1300,0.3300,-45.9375,60.0000,-101.2500,0.57696533203125,-0.61657714843750,-0.45666503906250,-0.27990722656250,moving
191.21,3,0,3,3,1.9600,0.5500,0.7000,-31.7500,45.7500,-105.0000,0.57452392578125,-0.61285400390625,-0.45922851562500,-0.28894042968750,moving
191.22,3,0,3,3,1.7500,-0.6300,1.8900,-24.9375,38.1875,-106.5000,0.57196044921875,-0.60876464843750,-0.46240234375000,-0.29736328125000,moving
191.23,3,0,3,3,1.3700,-1.4000,2.3200,-24.3125,40.5000,-105.6875,0.56951904296875,-0.60461425781250,-0.46533203125000,-0.30584716796875,moving
191.24,3,0,3,3,0.8200,-2.0500,2.4100,-32.9375,52.0000,-102.6250,0.56707763671875,-0.60064697265625,-0.46728515625000,-0.31506347656250,moving
191.25,3,0,3,3,0.9400,-2.4000,1.9000,-49.4375,69.6875,-99.1250,0.56457519531250,-0.59704589843750,-0.46771240234375,-0.32562255859375,moving
191.26,3,0,3,3,0.4600,-2.5200,1.3400,-63.8125,85.6875,-98.8750,0.56188964843750,-0.59362792968750,-0.46679687500000,-0.33758544921875,moving
191.27,3,0,3,3,-0.5800,-2.9000,0.6600,-63.8125,91.8125,-98.0625,0.55938720703125,-0.58996582031250,-0.46545410156250,-0.34979248046875,moving
191.28,3,0,3,3,-1.1700,-3.5200,0.2400,-59.1250,98.6250,-93.6250,0.55743408203125,-0.58593750000000,-0.46368408203125,-0.36187744140625,moving
191.29,3,0,3,3,-2.2000,-4.3600,-0.2000,-54.0625,104.6250,-92.5000,0.55590820312500,-0.58148193359375,-0.46154785156250,-0.37390136718750,moving
191.30,3,0,3,3,-2.2500,-4.7800,-0.4300,-48.2500,103.3750,-87.1250,0.55474853515625,-0.57684326171875,-0.45935058593750,-0.38531494140625,moving
191.33,3,0,3,3,-2.4500,-6.4200,-1.4300,-39.8750,106.6875,-72.5625,0.55389404296875,-0.56732177734375,-0.45385742187500,-0.40673828125000,moving
191.33,3,0,3,3,-2.8500,-6.9900,-2.0900,-35.5000,98.9375,-63.0625,0.55377197265625,-0.56292724609375,-0.45086669921875,-0.41607666015625,moving
191.34,3,0,3,3,-2.7200,-7.1600,-2.4400,-35.1250,80.6875,-57.1250,0.55316162109375,-0.55944824218750,-0.44848632812500,-0.42419433593750,moving
191.35,3,0,3,3,-3.4200,-6.9200,-3.3200,-26.8750,59.5625,-51.8125,0.55224609375000,-0.55645751953125,-0.44714355468750,-0.43066406250000,moving
191.36,3,0,3,3,-3.7700,-6.9100,-4.0200,-13.1250,33.6875,-42.1875,0.55133056640625,-0.55413818359375,-0.44708251953125,-0.43481445312500,moving
191.37,3,0,3,3,-3.3800,-6.5400,-4.1700,7.9375,18.8750,-33.1250,0.55120849609375,-0.55175781250000,-0.44805908203125,-0.43701171875000,moving
191.38,3,0,3,3,-3.4100,-5.8600,-3.8200,36.5000,21.3750,-24.6875,0.55285644531250,-0.54821777343750,-0.44958496093750,-0.43780517578125,moving
191.39,3,0,3,3,-3.3500,-5.2000,-3.6900,54.0625,15.8750,-15.3125,0.55548095703125,-0.54443359375000,-0.45159912109375,-0.43719482421875,moving
191.40,3,0,3,3,-3.5000,-4.9500,-3.0700,50.5000,3.9375,-4.9375,0.55786132812500,-0.54162597656250,-0.45355224609375,-0.43560791015625,moving
191.41,3,0,3,3,-3.8000,-5.0100,-2.5400,41.0000,10.6250,9.2500,0.56054687500000,-0.53961181640625,-0.45416259765625,-0.43402099609375,moving
191.42,3,0,3,3,-4.3500,-5.2800,-2.0900,34.5625,17.3750,25.2500,0.56384277343750,-0.53826904296875,-0.45336914062500,-0.43218994140625,moving
191.43,3,0,3,3,-4.6500,-5.7700,-1.8900,26.6250,3.8750,39.2500,0.56677246093750,-0.53839111328125,-0.45233154296875,-0.42938232421875,moving
191.44,3,0,3,3,-4.1500,-5.8300,-2.3100,25.1250,-16.4375,50.3750,0.56915283203125,-0.53973388671875,-0.45166015625000,-0.42504882812500,moving
191.45,3,0,3,3,-3.9100,-5.6700,-2.6500,26.2500,-33.0625,57.3125,0.57122802734375,-0.54199218750000,-0.45159912109375,-0.41955566406250,moving
191.46,3,0,3,3,-3.9100,-5.6700,-2.6500,26.2500,-33.0625,57.3125,0.57122802734375,-0.54199218750000,-0.45159912109375,-0.41955566406250,moving
191.46,3,0,3,3,-3.9300,-5.4200,-2.8800,36.1250,-44.8750,66.3750,0.57360839843750,-0.54443359375000,-0.45196533203125,-0.41265869140625,moving
191.47,3,0,3,3,-3.5200,-4.9700,-2.3100,54.8750,-50.8750,74.5625,0.57690429687500,-0.54650878906250,-0.45288085937500,-0.40429687500000,moving
191.48,3,0,3,3,-3.2900,-4.6100,-2.2300,66.8125,-50.7500,81.8750,0.58093261718750,-0.54815673828125,-0.45385742187500,-0.39508056640625,moving
191.49,3,0,3,3,-3.2400,-4.3200,-2.0000,71.3750,-56.3125,89.6250,0.58520507812500,-0.55004882812500,-0.45483398437500,-0.38494873046875,moving
191.50,3,0,3,3,-2.9500,-3.7900,-1.8300,74.6250,-66.3750,97.2500,0.58935546875000,-0.55230712890625,-0.45599365234375,-0.37371826171875,moving
191.51,3,0,3,3,-2.0400,-2.9800,-1.2200,72.8750,-71.1875,105.7500,0.59344482421875,-0.55511474609375,-0.45684814453125,-0.36187744140625,moving
191.52,3,0,3,3,-1.4900,-2.3200,-1.0000,69.4375,-68.1875,114.5000,0.59771728515625,-0.55822753906250,-0.45697021484375,-0.34979248046875,moving
191.53,3,0,3,3,-1.0300,-1.6900,-0.6600,65.9375,-65.6875,121.0000,0.60192871093750,-0.56158447265625,-0.45642089843750,-0.33758544921875,moving
191.54,3,0,3,3,0.3200,-0.4900,-0.5700,65.3125,-67.3125,125.6250,0.60614013671875,-0.56512451171875,-0.45562744140625,-0.32495117187500,moving
191.55,3,0,3,3,0.8000,0.1800,-0.7000,62.0625,-72.1875,127.6875,0.60992431640625,-0.56896972656250,-0.45483398437500,-0.31207275390625,moving
191.56,3,0,3,3,1.4100,1.0400,-0.9500,59.0000,-72.5625,127.9375,0.61340332031250,-0.57287597656250,-0.45385742187500,-0.29925537109375,moving
191.57,3,0,3,3,1.9900,2.0500,-1.2800,54.6250,-73.6875,124.2500,0.61639404296875,-0.57678222656250,-0.45294189453125,-0.28668212890625,moving
