timestamp,calib_mag,calib_accel,calib_gyro,calib_sys,lacc_x,lacc_y,lacc_z,gyro_x,gyro_y,gyro_z,quat_w,quat_x,quat_y,quat_z,label
176.98,3,1,3,3,-4.0500,7.2000,1.0000,34.8750,35.3750,-78.8125,0.26354980468750,-0.71472167968750,0.22454833984375,0.60772705078125,moving
176.99,3,1,3,3,-4.9200,8.9300,1.1200,35.8125,34.7500,-62.3125,0.26843261718750,-0.71697998046875,0.22332763671875,0.60339355468750,moving
177.00,3,1,3,3,-4.7400,10.2500,1.4500,53.0625,27.3750,-40.6250,0.27337646484375,-0.71795654296875,0.22418212890625,0.59967041015625,moving
177.01,3,1,3,3,-4.0500,10.3100,1.9900,75.9375,12.5625,-21.7500,0.27899169921875,-0.71722412109375,0.22705078125000,0.59680175781250,moving
177.02,3,1,3,3,-3.3500,9.4800,2.1700,73.1250,16.3125,-17.0625,0.28417968750000,-0.71661376953125,0.23016357421875,0.59393310546875,moving
177.03,3,1,3,3,-2.2700,7.0700,2.7600,54.9375,18.3750,-18.5000,0.28820800781250,-0.71655273437500,0.23236083984375,0.59118652343750,moving
177.04,3,1,3,3,-2.1200,5.9500,2.5500,37.5000,25.9375,-15.0625,0.29077148437500,-0.71722412109375,0.23400878906250,0.58843994140625,moving
177.05,3,1,3,3,-3.2100,5.1300,2.5100,28.4375,20.6875,-2.6250,0.29223632812500,-0.71765136718750,0.23577880859375,0.58648681640625,moving
177.06,3,1,3,3,-3.5900,5.4000,2.2900,15.2500,16.2500,4.1875,0.29266357421875,-0.71795654296875,0.23730468750000,0.58526611328125,moving
177.07,3,1,3,3,-3.8300,5.1300,2.0400,-8.6250,1.6250,9.0000,0.29162597656250,-0.71807861328125,0.23742675781250,0.58563232421875,moving
177.08,3,1,3,3,-3.9000,5.6900,1.7300,-30.9375,-12.5000,16.1250,0.28906250000000,-0.71789550781250,0.23657226562500,0.58746337890625,moving
177.09,3,1,3,3,-3.9800,5.7800,1.0300,-47.1875,-26.1250,26.1875,0.28527832031250,-0.71716308593750,0.23516845703125,0.59075927734375,moving
177.10,3,1,3,3,-3.5300,6.0000,0.7700,-55.7500,-38.2500,38.4375,0.28057861328125,-0.71575927734375,0.23376464843750,0.59527587890625,moving
177.11,3,1,3,3,-2.8700,6.0600,0.1900,-53.3750,-50.9375,51.4375,0.27557373046875,-0.71331787109375,0.23297119140625,0.60076904296875,moving
177.11,3,1,3,3,-2.8700,6.0600,0.1900,-53.3750,-50.9375,51.4375,0.27557373046875,-0.71331787109375,0.23297119140625,0.60076904296875,moving
177.12,3,1,3,3,-0.8600,5.2300,-0.2700,-58.8125,-56.1875,61.8750,0.26977539062500,-0.71044921875000,0.23242187500000,0.60699462890625,moving
177.13,3,1,3,3,-0.2100,4.3000,-0.4600,-69.0000,-54.7500,69.0000,0.26287841796875,-0.70776367187500,0.23175048828125,0.61340332031250,moving
177.14,3,1,3,3,0.1800,3.2300,-0.4400,-65.3125,-50.3125,75.6250,0.25579833984375,-0.70495605468750,0.23181152343750,0.61956787109375,moving
177.15,3,1,3,3,0.0500,2.2200,-0.3400,-51.3125,-46.8125,83.6250,0.24902343750000,-0.70184326171875,0.23315429687500,0.62536621093750,moving
177.16,3,1,3,3,-0.5700,0.5500,-0.0500,-43.3125,-44.3125,89.0625,0.24237060546875,-0.69848632812500,0.23529052734375,0.63085937500000,moving
177.17,3,1,3,3,-0.3000,-0.3700,-0.2100,-46.5625,-45.1250,88.8125,0.23547363281250,-0.69506835937500,0.23724365234375,0.63647460937500,moving
177.18,3,1,3,3,0.2500,-1.2600,-0.4900,-57.0625,-49.9375,85.1875,0.22827148437500,-0.69165039062500,0.23822021484375,0.64245605468750,moving
177.19,3,1,3,3,1.0600,-2.4100,-0.5600,-73.6875,-59.1875,77.8125,0.22064208984375,-0.68811035156250,0.23760986328125,0.64904785156250,moving
177.20,3,1,3,3,2.6600,-4.9100,-0.9200,-81.6875,-62.3750,66.6875,0.21325683593750,-0.68475341796875,0.23583984375000,0.65576171875000,moving
177.21,3,1,3,3,2.9500,-6.1600,-1.7300,-68.0000,-62.5000,57.6250,0.20715332031250,-0.68121337890625,0.23425292968750,0.66198730468750,moving
177.22,3,1,3,3,2.6600,-7.7100,-2.5700,-41.3750,-65.7500,51.6875,0.20300292968750,-0.67706298828125,0.23376464843750,0.66766357421875,moving
177.23,3,1,3,3,2.9000,-7.8400,-1.1100,0.5000,-101.7500,48.5625,0.20220947265625,-0.67004394531250,0.23480224609375,0.67449951171875,moving
177.24,3,1,3,3,2.4300,-9.5900,-3.3000,19.9375,-100.9375,42.3125,0.20294189453125,-0.66284179687500,0.23669433593750,0.68072509765625,moving
177.25,3,1,3,3,2.6300,-9.7300,-4.4100,0.0625,-61.1875,26.5625,0.20257568359375,-0.65869140625000,0.23712158203125,0.68475341796875,moving
177.26,3,1,3,3,2.4100,-10.5000,-5.3200,-6.7500,-30.1250,14.4375,0.20196533203125,-0.65667724609375,0.23706054687500,0.68688964843750,moving
177.27,3,1,3,3,2.3700,-9.2900,-5.8200,3.3750,-8.1250,6.5625,0.20196533203125,-0.65600585937500,0.23748779296875,0.68737792968750,moving
177.28,3,1,3,3,2.4300,-8.1800,-5.3600,15.6250,6.7500,-3.6875,0.20294189453125,-0.65618896484375,0.23834228515625,0.68658447265625,moving
177.29,3,1,3,3,2.3500,-7.4000,-4.5900,17.0625,10.3750,-16.3125,0.20465087890625,-0.65686035156250,0.23858642578125,0.68536376953125,moving
177.30,3,1,3,3,2.2100,-7.7300,-4.4500,-0.5000,28.8125,-34.0000,0.20611572265625,-0.65930175781250,0.23712158203125,0.68304443359375,moving
177.31,3,1,3,3,2.3900,-7.1600,-3.6900,-16.3750,52.5625,-49.7500,0.20709228515625,-0.66375732421875,0.23419189453125,0.67944335937500,moving
177.32,3,1,3,3,2.1400,-6.8600,-3.2900,-14.7500,65.3125,-62.7500,0.20861816406250,-0.66918945312500,0.23083496093750,0.67480468750000,moving
177.33,3,1,3,3,1.6800,-6.1400,-2.8400,-7.5000,74.8750,-73.8125,0.21105957031250,-0.67523193359375,0.22741699218750,0.66918945312500,moving
177.34,3,1,3,3,0.9400,-5.4700,-2.3600,-0.6250,82.7500,-82.8125,0.21423339843750,-0.68170166015625,0.22399902343750,0.66271972656250,moving
177.35,3,1,3,3,0.4200,-3.5000,0.1700,6.8750,81.1875,-86.1250,0.21801757812500,-0.68798828125000,0.22070312500000,0.65606689453125,moving
177.36,3,1,3,3,0.0300,-1.2800,0.3500,42.9375,61.1875,-83.0000,0.22418212890625,-0.69226074218750,0.21929931640625,0.64996337890625,moving
177.37,3,1,3,3,0.8100,-0.2800,1.3800,84.3125,73.6875,-82.1250,0.23254394531250,-0.69635009765625,0.22052001953125,0.64221191406250,moving
177.38,3,1,3,3,0.8100,-0.2800,1.3800,84.3125,73.6875,-82.1250,0.23254394531250,-0.69635009765625,0.22052001953125,0.64221191406250,moving
177.38,3,1,3,3,0.0200,0.2200,1.4600,89.5000,67.0625,-86.5000,0.24157714843750,-0.69989013671875,0.22161865234375,0.63452148437500,moving
177.39,3,1,3,3,0.2600,1.9200,1.5500,79.9375,58.2500,-88.1875,0.25024414062500,-0.70312500000000,0.22180175781250,0.62750244140625,moving
177.40,3,1,3,3,-0.2800,2.7900,1.5600,71.5000,45.1875,-87.2500,0.25854492187500,-0.70574951171875,0.22131347656250,0.62139892578125,moving
177.41,3,1,3,3,-0.8400,4.0700,1.6300,70.9375,37.0000,-83.1250,0.26672363281250,-0.70770263671875,0.22082519531250,0.61578369140625,moving
177.42,3,1,3,3,-1.6300,5.5600,1.4700,67.6875,37.6250,-74.8125,0.27423095703125,-0.70959472656250,0.22070312500000,0.61041259765625,moving
177.43,3,1,3,3,-3.1800,7.5200,0.5100,48.4375,37.4375,-66.8125,0.28002929687500,-0.71173095703125,0.22003173828125,0.60546875000000,moving
177.44,3,1,3,3,-3.7200,9.1300,0.5300,21.4375,33.8125,-55.6250,0.28369140625000,-0.71405029296875,0.21850585937500,0.60156250000000,moving
177.45,3,1,3,3,-4.1400,10.4300,0.4900,8.8750,28.6250,-40.4375,0.28582763671875,-0.71612548828125,0.21716308593750,0.59863281250000,moving
177.46,3,1,3,3,-4.4000,11.3800,1.7300,19.1250,21.3750,-26.4375,0.28802490234375,-0.71722412109375,0.21704101562500,0.59625244140625,moving
177.47,3,1,3,3,-3.7500,10.2900,2.2600,39.7500,8.0000,-9.9375,0.29089355468750,-0.71685791015625,0.21868896484375,0.59472656250000,moving
177.48,3,1,3,3,-2.8300,7.9300,2.5100,51.4375,4.6875,3.8125,0.29376220703125,-0.71569824218750,0.22167968750000,0.59356689453125,moving
177.49,3,1,3,3,-2.7800,6.4100,2.4500,41.5000,14.0000,14.5625,0.29534912109375,-0.71508789062500,0.22509765625000,0.59222412109375,moving
177.50,3,1,3,3,-3.6900,5.8000,1.9100,18.0000,18.5625,23.0000,0.29492187500000,-0.71514892578125,0.22796630859375,0.59130859375000,moving
177.51,3,1,3,3,-3.8900,6.0800,1.7300,-10.5625,15.5625,27.1875,0.29248046875000,-0.71563720703125,0.22955322265625,0.59124755859375,moving
177.52,3,1,3,3,-3.8500,6.4500,1.5700,-30.4375,0.8750,33.1250,0.28881835937500,-0.71575927734375,0.23010253906250,0.59265136718750,moving
177.53,3,1,3,3,-3.5300,6.7500,1.2500,-43.2500,-16.0000,41.6875,0.28430175781250,-0.71520996093750,0.23010253906250,0.59564208984375,moving
177.54,3,1,3,3,-3.0700,6.7200,1.0100,-57.7500,-23.5000,51.6875,0.27844238281250,-0.71435546875000,0.22973632812500,0.59954833984375,moving
177.55,3,1,3,3,-2.5000,6.2900,0.6400,-57.6875,-28.1875,64.2500,0.27197265625000,-0.71295166015625,0.23010253906250,0.60400390625000,moving
177.56,3,1,3,3,-2.1300,5.6400,0.4800,-49.6875,-31.1250,75.1250,0.26550292968750,-0.71093750000000,0.23144531250000,0.60870361328125,moving
177.57,3,1,3,3,-1.6300,4.8500,0.4800,-43.4375,-32.8750,86.6875,0.25885009765625,-0.70837402343750,0.23376464843750,0.61364746093750,moving
177.58,3,1,3,3,-1.0500,3.2700,0.6400,-37.1250,-36.8750,96.1875,0.25207519531250,-0.70520019531250,0.23693847656250,0.61889648437500,moving
177.59,3,1,3,3,-1.1300,2.4200,0.6900,-39.8750,-43.3750,102.8750,0.24493408203125,-0.70153808593750,0.24017333984375,0.62463378906250,moving
177.60,3,1,3,3,-1.0700,1.2400,0.7500,-51.0000,-47.0625,107.3750,0.23687744140625,-0.69775390625000,0.24298095703125,0.63085937500000,moving
177.61,3,1,3,3,-0.4200,-0.9100,0.9000,-58.5625,-48.0625,109.2500,0.22821044921875,-0.69390869140625,0.24542236328125,0.63726806640625,moving
177.62,3,1,3,3,0.3000,-2.0500,0.9200,-52.8750,-54.2500,113.6250,0.21984863281250,-0.68945312500000,0.24829101562500,0.64392089843750,moving
177.63,3,1,3,3,1.2700,-3.2400,0.1400,-43.5625,-61.7500,116.0000,0.21197509765625,-0.68426513671875,0.25164794921875,0.65081787109375,moving
177.64,3,1,3,3,1.2700,-3.2400,0.1400,-43.5625,-61.7500,116.0000,0.21197509765625,-0.68426513671875,0.25164794921875,0.65081787109375,moving
177.64,3,1,3,3,2.3000,-4.7900,-0.0200,-37.6250,-68.5000,113.4375,0.20471191406250,-0.67846679687500,0.25506591796875,0.65777587890625,moving
177.65,3,1,3,3,3.5900,-8.0000,-1.1500,-34.1250,-75.3125,102.0625,0.19848632812500,-0.67242431640625,0.25781250000000,0.66479492187500,moving
177.66,3,1,3,3,3.8100,-9.2100,-1.7500,-33.8125,-80.1875,86.8750,0.19323730468750,-0.66632080078125,0.25958251953125,0.67175292968750,moving
177.67,3,1,3,3,3.4000,-9.9900,-1.4100,-46.5625,-73.1875,71.8750,0.18792724609375,-0.66113281250000,0.25976562500000,0.67828369140625,moving
177.68,3,1,3,3,3.1300,-11.0800,-3.8300,-58.3125,-34.5625,54.5000,0.18212890625000,-0.65881347656250,0.25891113281250,0.68249511718750,moving
177.69,3,1,3,3,2.3600,-11.9100,-5.0600,-48.1250,-25.7500,38.5625,0.17761230468750,-0.65710449218750,0.25787353515625,0.68566894531250,moving
177.70,3,1,3,3,1.5400,-12.0500,-5.3800,-15.7500,-20.7500,31.3750,0.17529296875000,-0.65539550781250,0.25842285156250,0.68768310546875,moving
177.71,3,1,3,3,1.0100,-11.3300,-5.4300,21.6875,-7.3750,26.1250,0.17510986328125,-0.65405273437500,0.26110839843750,0.68804931640625,moving
177.72,3,1,3,3,0.9400,-10.0800,-5.1200,48.5000,7.9375,18.7500,0.17657470703125,-0.65338134765625,0.26519775390625,0.68676757812500,moving
177.73,3,1,3,3,1.4300,-7.7900,-3.5900,52.4375,16.3125,4.2500,0.17895507812500,-0.65344238281250,0.26879882812500,0.68463134765625,moving
177.74,3,1,3,3,1.9800,-6.9300,-2.9900,33.6875,22.6875,-16.8125,0.18139648437500,-0.65466308593750,0.27020263671875,0.68225097656250,moving
177.75,3,1,3,3,2.3500,-6.3100,-2.6100,6.8125,30.5625,-38.0000,0.18334960937500,-0.65728759765625,0.26885986328125,0.67974853515625,moving
177.76,3,1,3,3,2.1700,-5.9400,-2.3800,-11.0000,41.8125,-55.4375,0.18505859375000,-0.66125488281250,0.26568603515625,0.67669677734375,moving
177.77,3,1,3,3,0.5400,-4.9300,-1.4700,-14.1875,49.2500,-68.7500,0.18719482421875,-0.66601562500000,0.26165771484375,0.67303466796875,moving
177.78,3,1,3,3,-0.4800,-4.1800,-0.9300,0.1875,49.0625,-76.1250,0.19055175781250,-0.67065429687500,0.25799560546875,0.66888427734375,moving
177.79,3,1,3,3,-1.6900,-3.7400,-0.5700,27.3125,50.0000,-78.4375,0.19561767578125,-0.67486572265625,0.25573730468750,0.66400146484375,moving
177.80,3,1,3,3,-0.9600,-3.1400,0.5900,59.3125,47.5625,-77.0000,0.20257568359375,-0.67834472656250,0.25543212890625,0.65850830078125,moving
177.81,3,1,3,3,-0.4400,-3.2800,0.6700,94.2500,36.4375,-79.3750,0.21191406250000,-0.68048095703125,0.25671386718750,0.65277099609375,moving
177.82,3,1,3,3,0.1500,-3.1300,0.3900,102.9375,31.6875,-84.5625,0.22216796875000,-0.68231201171875,0.25811767578125,0.64691162109375,moving
177.83,3,1,3,3,0.4800,-3.1300,0.0000,99.0000,32.5000,-92.7500,0.23254394531250,-0.68426513671875,0.25872802734375,0.64086914062500,moving
177.84,3,1,3,3,0.2900,-1.5700,-0.3000,90.7500,28.0625,-101.9375,0.24310302734375,-0.68627929687500,0.25823974609375,0.63500976562500,moving
177.85,3,1,3,3,-0.1500,-0.0600,-0.0700,79.3125,21.8750,-109.0000,0.25341796875000,-0.68823242187500,0.25653076171875,0.62951660156250,moving
177.86,3,1,3,3,-0.7700,1.4100,0.1900,64.7500,15.6875,-113.6875,0.26318359375000,-0.69018554687500,0.25354003906250,0.62457275390625,moving
177.87,3,1,3,3,-1.4000,3.1500,0.3300,53.7500,10.8125,-111.7500,0.27233886718750,-0.69201660156250,0.24993896484375,0.62005615234375,moving
177.88,3,1,3,3,-3.0400,6.4700,0.9500,42.8750,6.5625,-102.9375,0.28033447265625,-0.69354248046875,0.24615478515625,0.61627197265625,moving
177.89,3,1,3,3,-3.0400,6.4700,0.9500,42.8750,6.5625,-102.9375,0.28033447265625,-0.69354248046875,0.24615478515625,0.61627197265625,moving
177.89,3,1,3,3,-3.8800,8.4500,0.6300,29.6875,10.4375,-89.4375,0.28674316406250,-0.69531250000000,0.24255371093750,0.61273193359375,moving
177.90,3,1,3,3,-4.5800,10.6500,0.4000,13.5000,19.8125,-72.8750,0.29107666015625,-0.69757080078125,0.23931884765625,0.60937500000000,moving
177.91,3,1,3,3,-4.8700,13.0300,0.1500,-9.0625,24.7500,-53.8750,0.29290771484375,-0.70025634765625,0.23614501953125,0.60668945312500,moving
177.92,3,1,3,3,-4.1900,14.5700,1.3100,-28.7500,26.3750,-41.0625,0.29278564453125,-0.70324707031250,0.23278808593750,0.60461425781250,moving
177.93,3,1,3,3,-3.3200,14.0300,2.0400,-26.0625,40.4375,-22.9375,0.29156494140625,-0.70648193359375,0.23101806640625,0.60205078125000,moving
177.94,3,1,3,3,-2.5500,12.2200,0.9300,-0.3750,58.4375,-6.4375,0.29071044921875,-0.70971679687500,0.23211669921875,0.59826660156250,moving
177.95,3,1,3,3,-1.7300,8.2300,2.3500,27.8750,45.3750,2.7500,0.29138183593750,-0.71130371093750,0.23492431640625,0.59497070312500,moving
177.96,3,1,3,3,-2.7700,7.2200,2.4000,38.8750,47.7500,27.0625,0.29138183593750,-0.71221923828125,0.23986816406250,0.59191894531250,moving
177.97,3,1,3,3,-2.9300,6.5800,2.8200,31.5625,55.8125,44.4375,0.28985595703125,-0.71331787109375,0.24566650390625,0.58892822265625,moving
177.98,3,1,3,3,-2.7100,6.4200,2.7800,14.1875,51.4375,50.8125,0.28698730468750,-0.71447753906250,0.25085449218750,0.58666992187500,moving
177.99,3,1,3,3,-2.2900,6.2900,2.9500,-6.1250,33.2500,56.2500,0.28295898437500,-0.71508789062500,0.25494384765625,0.58618164062500,moving
178.00,3,1,3,3,-2.1200,5.9800,2.8300,-29.6875,7.0625,62.1250,0.27770996093750,-0.71478271484375,0.25750732421875,0.58795166015625,moving
178.01,3,1,3,3,-1.9200,5.2500,2.5300,-53.1875,-14.5000,64.7500,0.27136230468750,-0.71380615234375,0.25848388671875,0.59161376953125,moving
178.02,3,1,3,3,-1.5900,4.6300,2.0300,-72.9375,-34.5000,68.9375,0.26397705078125,-0.71215820312500,0.25823974609375,0.59704589843750,moving
178.03,3,1,3,3,-1.7100,3.1600,1.2000,-83.6250,-56.1250,74.4375,0.25610351562500,-0.70941162109375,0.25720214843750,0.60412597656250,moving
178.04,3,1,3,3,-1.9300,2.4000,0.8100,-91.6875,-73.0625,80.1250,0.24780273437500,-0.70574951171875,0.25573730468750,0.61248779296875,moving
178.05,3,1,3,3,-1.9900,1.3600,0.3100,-90.9375,-86.6250,87.0625,0.23944091796875,-0.70104980468750,0.25433349609375,0.62170410156250,moving
178.06,3,1,3,3,-2.0000,0.5100,0.0200,-82.4375,-96.5000,94.2500,0.23132324218750,-0.69531250000000,0.25366210937500,0.63140869140625,moving
178.07,3,1,3,3,-0.9100,-0.8100,-0.3200,-73.3125,-103.7500,103.4375,0.22344970703125,-0.68865966796875,0.25378417968750,0.64135742187500,moving
178.08,3,1,3,3,0.2800,-1.7300,-0.4400,-59.1250,-94.6250,113.6875,0.21557617187500,-0.68194580078125,0.25549316406250,0.65057373046875,moving
178.09,3,1,3,3,1.6000,-2.7300,-0.6200,-59.1250,-94.6250,113.6875,0.20764160156250,-0.67504882812500,0.25714111328125,0.65960693359375,moving
178.10,3,1,3,3,2.3300,-3.9800,-0.7800,-50.5625,-80.8125,112.4375,0.19995117187500,-0.66870117187500,0.25939941406250,0.66754150390625,moving
178.11,3,1,3,3,3.0100,-6.7800,-1.5800,-36.6250,-70.8750,105.7500,0.19323730468750,-0.66271972656250,0.26220703125000,0.67431640625000,moving
178.12,3,1,3,3,3.2200,-8.5200,-1.9500,-24.9375,-73.8750,92.0625,0.18798828125000,-0.65661621093750,0.26483154296875,0.68072509765625,moving
178.13,3,1,3,3,2.5800,-8.6600,-1.6400,-59.0000,-40.6875,64.6875,0.18170166015625,-0.65362548828125,0.26434326171875,0.68542480468750,moving
178.14,3,1,3,3,2.3500,-10.3100,-3.9500,-59.0000,-40.6875,64.6875,0.17535400390625,-0.65063476562500,0.26385498046875,0.69018554687500,moving
178.15,3,1,3,3,2.3500,-10.3100,-3.9500,-59.0000,-40.6875,64.6875,0.17535400390625,-0.65063476562500,0.26385498046875,0.69018554687500,moving
178.15,3,1,3,3,1.9900,-10.9300,-4.2500,-39.3125,-23.9375,38.2500,0.17138671875000,-0.64886474609375,0.26330566406250,0.69299316406250,moving
178.16,3,1,3,3,1.6200,-11.3200,-4.8300,-10.1250,-12.8750,31.3750,0.16918945312500,-0.64752197265625,0.26428222656250,0.69445800781250,moving
178.17,3,1,3,3,1.3800,-11.8300,-5.2100,25.3750,-4.2500,24.6250,0.16925048828125,-0.64630126953125,0.26715087890625,0.69445800781250,moving
178.18,3,1,3,3,1.5000,-11.0700,-5.2000,56.9375,4.4375,16.1250,0.17138671875000,-0.64532470703125,0.27154541015625,0.69311523437500,moving
178.19,3,1,3,3,1.7700,-9.8500,-4.5700,63.1875,14.3750,-0.4375,0.17462158203125,-0.64526367187500,0.27557373046875,0.69079589843750,moving
178.20,3,1,3,3,1.8400,-8.4800,-3.9000,41.3750,24.3750,-22.2500,0.17773437500000,-0.64666748046875,0.27716064453125,0.68804931640625,moving
178.21,3,1,3,3,1.9200,-6.6700,-3.2500,10.1875,31.8750,-41.3750,0.18005371093750,-0.64941406250000,0.27593994140625,0.68536376953125,moving
178.22,3,1,3,3,0.9000,-4.3500,-2.1200,-14.6250,36.3750,-58.1250,0.18182373046875,-0.65325927734375,0.27227783203125,0.68267822265625,moving
178.23,3,1,3,3,0.1000,-3.8400,-1.4700,-22.9375,40.3125,-72.1250,0.18389892578125,-0.65771484375000,0.26739501953125,0.67974853515625,moving
178.24,3,1,3,3,-1.4900,-3.0600,-0.7600,-10.5625,44.5625,-77.5000,0.18688964843750,-0.66235351562500,0.26300048828125,0.67614746093750,moving
178.25,3,1,3,3,-2.2600,-2.7000,0.0800,28.5625,51.0625,-78.1250,0.19195556640625,-0.66668701171875,0.26098632812500,0.67120361328125,moving
178.26,3,1,3,3,-2.2000,-3.7200,1.1100,80.5000,56.9375,-76.5000,0.19989013671875,-0.67041015625000,0.26214599609375,0.66473388671875,moving
178.27,3,1,3,3,-1.3600,-4.5600,1.2700,117.3125,45.1250,-74.6875,0.21002197265625,-0.67266845703125,0.26531982421875,0.65802001953125,moving
178.28,3,1,3,3,-0.5900,-5.1800,1.1900,130.0625,33.3125,-79.1250,0.22149658203125,-0.67401123046875,0.26867675781250,0.65155029296875,moving
178.29,3,1,3,3,-0.0100,-6.0500,-0.2300,123.0625,32.8125,-90.3125,0.23309326171875,-0.67553710937500,0.27093505859375,0.64489746093750,moving
178.30,3,1,3,3,0.0600,-5.9100,-0.8000,105.3125,23.1250,-103.8125,0.24462890625000,-0.67712402343750,0.27111816406250,0.63885498046875,moving
178.31,3,1,3,3,0.0200,-5.4000,-1.2500,85.6875,6.5625,-117.5000,0.25610351562500,-0.67840576171875,0.26904296875000,0.63385009765625,moving
178.32,3,1,3,3,-0.0900,-4.3400,-1.5800,67.8750,-6.3750,-129.3750,0.26745605468750,-0.67956542968750,0.26495361328125,0.62963867187500,moving
178.33,3,1,3,3,0.0000,-2.1700,-1.8300,52.1875,-10.5625,-138.1250,0.27844238281250,-0.68090820312500,0.25927734375000,0.62579345703125,moving
178.34,3,1,3,3,-0.0600,-0.6300,-2.1300,41.4375,-7.8750,-142.0625,0.28887939453125,-0.68267822265625,0.25286865234375,0.62176513671875,moving
178.35,3,1,3,3,-0.0200,1.0800,-2.0200,30.3125,-4.3125,-140.6875,0.29840087890625,-0.68475341796875,0.24591064453125,0.61773681640625,moving
178.36,3,1,3,3,0.1000,2.9400,-1.4400,15.0625,8.1875,-134.6250,0.30639648437500,-0.68768310546875,0.23883056640625,0.61334228515625,moving
178.37,3,1,3,3,0.1000,6.3400,-1.6900,1.4375,23.8125,-126.0625,0.31280517578125,-0.69152832031250,0.23193359375000,0.60839843750000,moving
178.38,3,1,3,3,-0.1100,8.1400,-1.6200,-8.6250,27.8125,-114.0000,0.31774902343750,-0.69549560546875,0.22528076171875,0.60375976562500,moving
178.39,3,1,3,3,-0.7900,10.0400,-1.8500,-13.0625,22.5000,-95.1250,0.32159423828125,-0.69891357421875,0.21942138671875,0.59997558593750,moving
178.40,3,1,3,3,-1.4600,11.7500,-1.0500,-12.5625,26.6250,-74.3125,0.32421875000000,-0.70208740234375,0.21496582031250,0.59643554687500,moving
178.41,3,1,3,3,-1.4600,11.7500,-1.0500,-12.5625,26.6250,-74.3125,0.32421875000000,-0.70208740234375,0.21496582031250,0.59643554687500,moving
178.41,3,1,3,3,-2.7800,15.1800,0.0600,-10.0625,62.3125,-44.6875,0.32476806640625,-0.70648193359375,0.21343994140625,0.59149169921875,moving
178.42,3,1,3,3,-3.6100,17.2100,-0.5500,13.3125,84.1250,-8.4375,0.32446289062500,-0.71057128906250,0.21594238281250,0.58581542968750,moving
178.43,3,1,3,3,-2.1900,16.7200,-0.0300,59.7500,80.1250,4.6250,0.32641601562500,-0.71289062500000,0.22155761718750,0.57977294921875,moving
178.44,3,1,3,3,-1.0600,11.9000,1.2000,103.6250,83.2500,5.3750,0.33093261718750,-0.71398925781250,0.22949218750000,0.57269287109375,moving
178.46,3,1,3,3,-2.5300,5.0900,2.8800,142.5000,93.4375,29.3750,0.33642578125000,-0.71392822265625,0.24114990234375,0.56481933593750,moving
178.47,3,1,3,3,-3.6600,3.5300,4.2400,130.1250,112.6250,37.8750,0.34020996093750,-0.71478271484375,0.25323486328125,0.55615234375000,moving
178.48,3,1,3,3,-4.1900,2.2900,4.3000,69.2500,135.6250,35.7500,0.33972167968750,-0.71844482421875,0.26281738281250,0.54718017578125,moving
178.49,3,1,3,3,-5.1800,2.1400,3.8600,13.1250,116.5000,37.7500,0.33605957031250,-0.72265625000000,0.26928710937500,0.54064941406250,moving
178.50,3,1,3,3,-5.9600,3.1700,3.7400,-22.6250,74.3750,35.4375,0.33117675781250,-0.72601318359375,0.27264404296875,0.53753662109375,moving
178.51,3,1,3,3,-6.3200,4.1100,3.2400,-45.4375,30.3125,33.8750,0.32592773437500,-0.72790527343750,0.27355957031250,0.53765869140625,moving
178.52,3,1,3,3,-6.3800,5.0700,3.3400,-56.0625,-11.1250,34.6250,0.32098388671875,-0.72808837890625,0.27282714843750,0.54071044921875,moving
178.53,3,1,3,3,-5.3200,5.5200,2.6600,-57.8750,-45.4375,35.4375,0.31665039062500,-0.72668457031250,0.27105712890625,0.54602050781250,moving
178.54,3,1,3,3,-5.0800,5.4300,1.8300,-58.5625,-75.5000,36.8750,0.31292724609375,-0.72381591796875,0.26855468750000,0.55322265625000,moving
178.55,3,1,3,3,-5.3400,5.6700,1.0100,-65.1875,-95.8750,37.7500,0.30920410156250,-0.72003173828125,0.26519775390625,0.56182861328125,moving
178.56,3,1,3,3,-5.2100,5.7600,0.6500,-74.5000,-96.1875,41.3750,0.30468750000000,-0.71624755859375,0.26159667968750,0.57067871093750,moving
178.57,3,1,3,3,-3.5800,4.4300,0.5800,-77.7500,-82.3750,46.6250,0.29931640625000,-0.71307373046875,0.25848388671875,0.57885742187500,moving
178.58,3,1,3,3,-3.0100,4.0700,0.3000,-72.6250,-73.0625,57.1250,0.29351806640625,-0.70996093750000,0.25646972656250,0.58654785156250,moving
178.59,3,1,3,3,-2.4400,3.3100,0.5200,-64.0625,-70.1250,67.0625,0.28759765625000,-0.70642089843750,0.25555419921875,0.59405517578125,moving
178.60,3,1,3,3,-2.0800,2.1500,0.4500,-59.0625,-69.6875,74.8125,0.28155517578125,-0.70257568359375,0.25537109375000,0.60156250000000,moving
178.61,3,1,3,3,-1.3100,0.0400,0.4500,-58.1875,-75.6250,82.7500,0.27526855468750,-0.69812011718750,0.25555419921875,0.60955810546875,moving
178.62,3,1,3,3,-0.4300,-0.8400,0.2300,-59.4375,-83.5625,89.6875,0.26867675781250,-0.69299316406250,0.25592041015625,0.61810302734375,moving
178.63,3,1,3,3,0.6100,-1.8500,0.1300,-61.0000,-91.2500,90.8750,0.26208496093750,-0.68737792968750,0.25598144531250,0.62713623046875,moving
178.64,3,1,3,3,2.4500,-2.8600,-0.8500,-71.1250,-92.3750,87.6875,0.25500488281250,-0.68188476562500,0.25524902343750,0.63623046875000,moving
178.65,3,1,3,3,3.4000,-3.4800,-1.1200,-90.4375,-94.8750,77.1250,0.24743652343750,-0.67681884765625,0.25274658203125,0.64562988281250,moving
178.66,3,1,3,3,3.9600,-4.2300,-1.6400,-107.0000,-83.3750,64.1875,0.23925781250000,-0.67291259765625,0.24871826171875,0.65423583984375,moving
178.67,3,1,3,3,4.3500,-4.7400,-2.2000,-112.1875,-73.5000,52.6875,0.23120117187500,-0.66986083984375,0.24389648437500,0.66210937500000,moving
178.68,3,1,3,3,4.3500,-4.7400,-2.2000,-112.1875,-73.5000,52.6875,0.23120117187500,-0.66986083984375,0.24389648437500,0.66210937500000,moving
178.69,3,1,3,3,5.0500,-5.2200,-1.9500,-105.0625,-69.0625,43.0625,0.22399902343750,-0.66699218750000,0.23895263671875,0.66918945312500,moving
178.70,3,1,3,3,4.8300,-6.0200,-2.1900,-88.0625,-60.5000,35.5625,0.21807861328125,-0.66436767578125,0.23468017578125,0.67523193359375,moving
178.71,3,1,3,3,4.3100,-7.3200,-2.7800,-65.1250,-53.2500,27.3125,0.21374511718750,-0.66186523437500,0.23144531250000,0.68017578125000,moving
178.71,3,1,3,3,4.0400,-7.5300,-3.0900,-38.0000,-50.3125,20.6250,0.21130371093750,-0.65917968750000,0.22943115234375,0.68426513671875,moving
178.72,3,1,3,3,3.2100,-6.9800,-3.9500,-9.1250,-41.5625,18.1250,0.21051025390625,-0.65643310546875,0.22918701171875,0.68719482421875,moving
178.73,3,1,3,3,2.7800,-5.5500,-3.8100,12.4375,-43.2500,17.1875,0.21105957031250,-0.65325927734375,0.23010253906250,0.68975830078125,moving
178.74,3,1,3,3,2.1600,-4.4600,-3.7000,16.0000,-37.3125,13.1250,0.21191406250000,-0.65045166015625,0.23114013671875,0.69177246093750,moving
178.75,3,1,3,3,1.4600,-3.7600,-3.5900,3.8750,-25.4375,4.5625,0.21240234375000,-0.64874267578125,0.23120117187500,0.69323730468750,moving
178.76,3,1,3,3,0.6500,-3.3200,-2.9000,-17.6250,-10.3750,-5.3750,0.21191406250000,-0.64855957031250,0.22961425781250,0.69409179687500,moving
178.77,3,1,3,3,0.3900,-2.8100,-2.5000,-36.9375,6.0000,-14.4375,0.21057128906250,-0.64990234375000,0.22668457031250,0.69421386718750,moving
178.78,3,1,3,3,0.0300,-2.1400,-1.8900,-46.5000,21.2500,-20.9375,0.20880126953125,-0.65246582031250,0.22302246093750,0.69354248046875,moving
178.79,3,1,3,3,-0.4900,-1.7400,-1.3300,-35.9375,42.7500,-21.6875,0.20727539062500,-0.65612792968750,0.22039794921875,0.69134521484375,moving
178.80,3,1,3,3,-1.6700,-0.1200,-1.1100,-9.6875,55.6875,-15.5625,0.20654296875000,-0.65991210937500,0.21990966796875,0.68804931640625,moving
178.81,3,1,3,3,-1.3400,0.7500,-0.5400,10.0000,56.5000,-8.9375,0.20660400390625,-0.66333007812500,0.22100830078125,0.68444824218750,moving
178.82,3,1,3,3,-0.4400,1.2600,-0.0300,23.7500,53.4375,-5.6250,0.20727539062500,-0.66619873046875,0.22308349609375,0.68078613281250,moving
178.83,3,1,3,3,0.7700,0.8300,0.5900,34.6875,51.0625,-3.6875,0.20855712890625,-0.66870117187500,0.22583007812500,0.67706298828125,moving
178.84,3,1,3,3,0.8500,0.4000,0.8200,37.8750,47.8125,-2.1875,0.20996093750000,-0.67083740234375,0.22882080078125,0.67346191406250,moving
178.85,3,1,3,3,0.8100,-0.0700,1.1000,32.8750,43.1250,-3.1250,0.21118164062500,-0.67285156250000,0.23132324218750,0.67022705078125,moving
178.86,3,1,3,3,0.7700,-0.4800,1.2500,25.2500,37.2500,-6.0625,0.21228027343750,-0.67468261718750,0.23309326171875,0.66735839843750,moving
178.88,3,1,3,3,0.7300,-0.9400,1.4000,19.0000,27.5000,-8.5625,0.21331787109375,-0.67608642578125,0.23425292968750,0.66522216796875,moving
178.88,3,1,3,3,0.6500,-1.0100,1.3800,13.8750,16.5625,-10.9375,0.21447753906250,-0.67706298828125,0.23468017578125,0.66375732421875,moving
178.89,3,1,3,3,0.5500,-1.0000,1.1500,9.3750,2.6250,-13.8750,0.21575927734375,-0.67730712890625,0.23443603515625,0.66308593750000,moving
178.90,3,1,3,3,0.5400,-0.9200,0.9100,4.7500,-13.6875,-17.3125,0.21734619140625,-0.67675781250000,0.23345947265625,0.66351318359375,moving
178.91,3,1,3,3,0.4600,-0.6000,0.3500,0.3125,-25.7500,-20.5625,0.21905517578125,-0.67572021484375,0.23175048828125,0.66461181640625,moving
178.92,3,1,3,3,0.4900,-0.4300,0.0600,-4.0000,-33.2500,-23.1250,0.22088623046875,-0.67431640625000,0.22949218750000,0.66619873046875,moving
178.93,3,1,3,3,0.3900,-0.1300,-0.3100,-6.1250,-36.4375,-24.8125,0.22265625000000,-0.67279052734375,0.22692871093750,0.66802978515625,moving
178.94,3,1,3,3,0.3900,-0.1300,-0.3100,-6.1250,-36.4375,-24.8125,0.22265625000000,-0.67279052734375,0.22692871093750,0.66802978515625,moving
178.94,3,1,3,3,0.2400,0.2100,-0.5600,-7.1250,-36.8125,-25.2500,0.22448730468750,-0.67132568359375,0.22430419921875,0.66979980468750,moving
178.96,3,1,3,3,-0.0300,0.5800,-0.9400,-7.0000,-33.0000,-24.5625,0.22613525390625,-0.66998291015625,0.22180175781250,0.67138671875000,moving
178.96,3,1,3,3,-0.0200,0.7000,-1.1300,-3.8125,-25.9375,-22.5625,0.22778320312500,-0.66900634765625,0.21972656250000,0.67254638671875,moving
178.97,3,1,3,3,0.0500,0.6700,-1.2000,0.8750,-16.5000,-20.0000,0.22930908203125,-0.66839599609375,0.21832275390625,0.67309570312500,moving
178.98,3,1,3,3,0.3500,0.6700,-1.1700,6.2500,-6.6250,-17.0625,0.23083496093750,-0.66821289062500,0.21752929687500,0.67297363281250,stop
178.99,3,1,3,3,0.3700,0.7600,-1.0200,9.7500,2.8125,-14.8750,0.23217773437500,-0.66845703125000,0.21728515625000,0.67236328125000,stop
179.00,3,1,3,3,0.4200,0.8000,-0.8300,10.6250,11.2500,-13.4375,0.23339843750000,-0.66918945312500,0.21734619140625,0.67120361328125,stop
179.02,3,1,3,3,0.4100,0.7400,-0.5700,10.9375,17.2500,-12.3750,0.23443603515625,-0.67016601562500,0.21765136718750,0.66973876953125,stop
179.03,3,1,3,3,0.2700,0.6600,-0.1000,11.9375,21.3750,-11.3125,0.23541259765625,-0.67138671875000,0.21807861328125,0.66796875000000,stop
179.04,3,1,3,3,0.2400,0.6700,0.0300,10.9375,23.0000,-10.6875,0.23620605468750,-0.67272949218750,0.21856689453125,0.66619873046875,stop
179.04,3,1,3,3,0.1700,0.7500,0.2300,9.1875,22.6875,-10.1250,0.23693847656250,-0.67407226562500,0.21899414062500,0.66448974609375,stop
179.05,3,1,3,3,0.0800,0.7300,0.3100,6.7500,22.5625,-9.7500,0.23748779296875,-0.67541503906250,0.21929931640625,0.66284179687500,stop
179.06,3,1,3,3,0.2200,0.8500,0.4100,4.6250,19.5625,-8.5000,0.23785400390625,-0.67663574218750,0.21942138671875,0.66137695312500,stop
179.07,3,1,3,3,0.2600,0.8800,0.5100,3.4375,15.1250,-7.6250,0.23822021484375,-0.67755126953125,0.21948242187500,0.66027832031250,stop
179.08,3,1,3,3,0.2600,0.8600,0.5300,1.8750,10.0000,-7.5625,0.23858642578125,-0.67828369140625,0.21936035156250,0.65948486328125,stop
179.10,3,1,3,3,0.2000,0.8200,0.5300,-0.1250,5.3125,-7.7500,0.23889160156250,-0.67871093750000,0.21905517578125,0.65899658203125,stop
179.11,3,1,3,3,0.1000,0.7700,0.4000,-2.5000,1.8125,-8.0625,0.23919677734375,-0.67901611328125,0.21844482421875,0.65875244140625,stop
179.12,3,1,3,3,0.0700,0.7600,0.3200,-4.5000,-0.9375,-8.1250,0.23944091796875,-0.67926025390625,0.21765136718750,0.65875244140625,stop
179.13,3,1,3,3,0.0300,0.6800,0.2600,-5.6250,-2.6250,-7.6875,0.23895263671875,-0.67877197265625,0.21746826171875,0.65948486328125,stop
179.13,3,1,3,3,0.1000,0.6000,0.1900,-6.0000,-2.8750,-7.3750,0.23852539062500,-0.67840576171875,0.21716308593750,0.66003417968750,stop
179.14,3,1,3,3,0.1300,0.3900,0.0900,-6.6875,-2.9375,-6.3750,0.23852539062500,-0.67852783203125,0.21636962890625,0.66021728515625,stop
179.15,3,1,3,3,0.2200,0.3300,0.0300,-6.5000,-3.1875,-6.0000,0.23858642578125,-0.67858886718750,0.21557617187500,0.66040039062500,stop
179.16,3,1,3,3,0.2000,0.3800,-0.0500,-6.2500,-2.6250,-5.5625,0.23852539062500,-0.67864990234375,0.21484375000000,0.66058349609375,stop
179.18,3,1,3,3,0.2100,0.3500,-0.0400,-5.9375,-1.6250,-5.2500,0.23852539062500,-0.67877197265625,0.21411132812500,0.66064453125000,stop
179.19,3,1,3,3,0.2100,0.3800,0.0400,-4.8125,0.0000,-4.8125,0.23852539062500,-0.67895507812500,0.21356201171875,0.66064453125000,stop
179.20,3,1,3,3,0.1900,0.3800,0.1000,-4.3125,2.1875,-4.1875,0.23803710937500,-0.67944335937500,0.21270751953125,0.66070556640625,stop
179.21,3,1,3,3,0.1400,0.3400,0.1700,-4.0625,4.3750,-3.5000,0.23773193359375,-0.67968750000000,0.21246337890625,0.66052246093750,stop
179.21,3,1,3,3,0.1300,0.2200,0.2400,-3.4375,5.3750,-2.6250,0.23748779296875,-0.68005371093750,0.21234130859375,0.66033935546875,stop
179.22,3,1,3,3,0.1000,0.2000,0.2800,-3.3125,5.4375,-2.1250,0.23724365234375,-0.68035888671875,0.21221923828125,0.66015625000000,stop
179.23,3,1,3,3,0.0400,0.2500,0.3500,-3.4375,4.3750,-1.5000,0.23699951171875,-0.68054199218750,0.21209716796875,0.66009521484375,stop
179.25,3,1,3,3,0.0700,0.3100,0.3500,-3.9375,2.5000,-1.2500,0.23565673828125,-0.68096923828125,0.21081542968750,0.66052246093750,stop
179.26,3,1,3,3,0.2100,0.2900,0.3000,-4.0000,0.3125,-1.1875,0.23541259765625,-0.68090820312500,0.21063232421875,0.66076660156250,stop
179.27,3,1,3,3,0.2000,0.2100,0.2700,-3.7500,-1.8750,-1.3750,0.23522949218750,-0.68078613281250,0.21032714843750,0.66101074218750,stop
179.28,3,1,3,3,0.2300,0.1900,0.2100,-4.2500,-3.8125,-1.9375,0.23510742187500,-0.68054199218750,0.20996093750000,0.66143798828125,stop
179.29,3,1,3,3,0.2400,0.1600,0.1400,-4.5625,-4.5625,-2.1875,0.23504638671875,-0.68035888671875,0.20947265625000,0.66180419921875,stop
179.30,3,1,3,3,0.2200,0.1100,0.0600,-4.6875,-4.1250,-1.9375,0.23400878906250,-0.68048095703125,0.20812988281250,0.66247558593750,stop
179.30,3,1,3,3,0.2200,0.0300,0.0000,-4.3125,-3.3750,-1.1875,0.23388671875000,-0.68041992187500,0.20776367187500,0.66271972656250,stop
179.31,3,1,3,3,0.1900,-0.0500,-0.0700,-3.7500,-2.6250,-0.8125,0.23370361328125,-0.68035888671875,0.20739746093750,0.66296386718750,stop
179.32,3,1,3,3,0.3000,-0.0800,-0.0900,-3.5625,-1.6875,-0.8125,0.23358154296875,-0.68029785156250,0.20715332031250,0.66308593750000,stop
179.34,3,1,3,3,0.3100,-0.0600,-0.0400,-3.2500,-0.5000,-1.0000,0.23345947265625,-0.68041992187500,0.20690917968750,0.66314697265625,stop
179.35,3,1,3,3,0.3200,-0.0300,0.0300,-2.8125,1.5625,-0.7500,0.23217773437500,-0.68090820312500,0.20556640625000,0.66345214843750,stop
179.36,3,1,3,3,0.2800,-0.0100,0.1100,-1.7500,2.8125,-0.6875,0.23205566406250,-0.68115234375000,0.20544433593750,0.66333007812500,stop
179.37,3,1,3,3,0.2300,-0.0600,0.1600,-0.4375,3.2500,-0.6250,0.23205566406250,-0.68133544921875,0.20544433593750,0.66314697265625,stop
179.38,3,1,3,3,0.2300,-0.0200,0.2000,-0.1250,2.6875,-0.7500,0.23205566406250,-0.68145751953125,0.20544433593750,0.66296386718750,stop
179.38,3,1,3,3,0.1900,-0.0200,0.2000,-0.5625,1.6875,-1.0625,0.23205566406250,-0.68157958984375,0.20538330078125,0.66290283203125,stop
179.40,3,1,3,3,0.1900,0.0000,0.2300,-0.5625,0.7500,-1.3125,0.23175048828125,-0.68170166015625,0.20489501953125,0.66302490234375,stop
179.41,3,1,3,3,0.2400,0.0300,0.2000,0.0000,-0.6875,-1.1875,0.23187255859375,-0.68164062500000,0.20483398437500,0.66308593750000,stop
179.42,3,1,3,3,0.2400,0.0100,0.1200,0.3125,-2.2500,-1.1250,0.23199462890625,-0.68145751953125,0.20471191406250,0.66320800781250,stop
179.43,3,1,3,3,0.2700,0.0200,0.0100,0.6250,-2.8125,-0.8125,0.23211669921875,-0.68127441406250,0.20458984375000,0.66339111328125,stop
179.44,3,1,3,3,0.2400,0.0100,-0.0700,1.0000,-3.0000,-0.6250,0.23229980468750,-0.68109130859375,0.20458984375000,0.66351318359375,stop
179.45,3,1,3,3,0.2300,0.1700,-0.1100,1.6250,-1.7500,-0.3125,0.23211669921875,-0.68109130859375,0.20434570312500,0.66369628906250,stop
179.46,3,1,3,3,0.2500,0.1800,-0.0800,2.4375,0.6250,0.4375,0.23223876953125,-0.68103027343750,0.20452880859375,0.66363525390625,stop
179.46,3,1,3,3,0.2500,0.1500,-0.0500,3.1875,3.2500,1.1250,0.23223876953125,-0.68115234375000,0.20489501953125,0.66339111328125,stop
179.47,3,1,3,3,0.2800,0.1200,0.0100,3.3750,5.0000,1.3125,0.23229980468750,-0.68133544921875,0.20526123046875,0.66308593750000,stop
179.49,3,1,3,3,0.3100,0.1000,0.1800,2.8750,5.7500,1.1250,0.23223876953125,-0.68157958984375,0.20562744140625,0.66271972656250,stop
179.50,3,1,3,3,0.2200,0.1400,0.2500,2.3125,5.3125,0.5625,0.23144531250000,-0.68206787109375,0.20513916015625,0.66271972656250,stop
179.51,3,1,3,3,0.2100,0.1300,0.3400,1.5000,4.3125,0.4375,0.23144531250000,-0.68225097656250,0.20532226562500,0.66241455078125,stop
179.52,3,1,3,3,0.1700,0.1600,0.3400,0.5625,2.6875,0.3125,0.23144531250000,-0.68243408203125,0.20538330078125,0.66223144531250,stop
179.53,3,1,3,3,0.1900,0.1100,0.2900,-0.0625,0.8750,0.2500,0.23144531250000,-0.68243408203125,0.20538330078125,0.66217041015625,stop
179.54,3,1,3,3,0.1900,0.0700,0.2300,-0.5625,-0.8750,0.1250,0.23138427734375,-0.68243408203125,0.20538330078125,0.66223144531250,stop
179.55,3,1,3,3,0.2400,0.0000,0.1400,-1.0625,-2.6250,-0.0625,0.23077392578125,-0.68243408203125,0.20458984375000,0.66271972656250,stop
179.56,3,1,3,3,0.2000,-0.0600,0.0100,-1.2500,-3.1250,-0.5625,0.23077392578125,-0.68225097656250,0.20440673828125,0.66290283203125,stop
179.57,3,1,3,3,0.2000,-0.0300,-0.0500,-1.1875,-2.9375,-0.7500,0.23083496093750,-0.68212890625000,0.20422363281250,0.66308593750000,stop
179.58,3,1,3,3,0.2300,-0.0400,-0.0700,-0.7500,-1.9375,-0.8750,0.23083496093750,-0.68200683593750,0.20410156250000,0.66320800781250,stop
179.59,3,1,3,3,0.2800,0.0100,-0.0900,0.1250,0.0000,-0.6250,0.23089599609375,-0.68206787109375,0.20410156250000,0.66320800781250,stop
179.60,3,1,3,3,0.3200,0.0700,-0.0400,0.7500,1.6875,-0.0625,0.22894287109375,-0.68273925781250,0.20214843750000,0.66375732421875,stop
179.61,3,1,3,3,0.3000,0.0800,0.0000,1.4375,3.8125,0.2500,0.22894287109375,-0.68292236328125,0.20233154296875,0.66351318359375,stop
179.62,3,1,3,3,0.3000,0.0800,0.0400,1.9375,5.1250,0.6250,0.22894287109375,-0.68316650390625,0.20257568359375,0.66320800781250,stop
179.63,3,1,3,3,0.2900,0.0900,0.1200,1.7500,5.6250,0.6250,0.22894287109375,-0.68341064453125,0.20281982421875,0.66284179687500,stop
179.64,3,1,3,3,0.1900,0.1000,0.1900,0.7500,5.3750,0.3750,0.22888183593750,-0.68371582031250,0.20300292968750,0.66253662109375,stop
179.65,3,1,3,3,0.1700,0.0900,0.2400,-0.1250,4.8125,0.0000,0.22814941406250,-0.68414306640625,0.20245361328125,0.66253662109375,stop
179.66,3,1,3,3,0.1100,0.1100,0.2400,-0.4375,3.3125,0.0000,0.22808837890625,-0.68426513671875,0.20257568359375,0.66241455078125,stop
179.67,3,1,3,3,0.1400,0.0800,0.2500,-0.7500,2.4375,-0.1875,0.22796630859375,-0.68432617187500,0.20257568359375,0.66235351562500,stop
179.68,3,1,3,3,0.1500,0.0300,0.2300,-0.5625,1.5625,-0.2500,0.22790527343750,-0.68432617187500,0.20257568359375,0.66235351562500,stop
179.69,3,1,3,3,0.1800,0.0100,0.2200,-0.8750,0.2500,-0.3750,0.22790527343750,-0.68432617187500,0.20251464843750,0.66241455078125,stop
179.70,3,1,3,3,0.2000,0.0300,0.1800,-1.0625,-1.0000,-0.6250,0.22784423828125,-0.68420410156250,0.20233154296875,0.66253662109375,stop
179.71,3,1,3,3,0.2100,0.0000,0.1100,-1.5000,-1.3750,-0.8750,0.22784423828125,-0.68414306640625,0.20214843750000,0.66265869140625,stop
179.72,3,1,3,3,0.2400,-0.0200,0.0900,-1.7500,-1.4375,-0.9375,0.22778320312500,-0.68408203125000,0.20196533203125,0.66284179687500,stop
179.73,3,1,3,3,0.2800,-0.0500,0.0500,-1.5000,-1.3125,-0.9375,0.22778320312500,-0.68408203125000,0.20178222656250,0.66290283203125,stop
179.74,3,1,3,3,0.3000,-0.0200,0.0100,-1.1250,-0.7500,-0.6250,0.22778320312500,-0.68402099609375,0.20166015625000,0.66296386718750,stop
179.75,3,1,3,3,0.2800,0.0300,0.0100,-0.8750,-0.3125,-0.4375,0.22705078125000,-0.68426513671875,0.20092773437500,0.66320800781250,stop
179.76,3,1,3,3,0.2400,0.0700,0.0200,-0.6250,0.7500,-0.1875,0.22698974609375,-0.68432617187500,0.20086669921875,0.66320800781250,stop
179.77,3,1,3,3,0.2200,0.0800,0.0400,-0.5000,1.6250,0.0625,0.22698974609375,-0.68438720703125,0.20092773437500,0.66308593750000,stop
179.78,3,1,3,3,0.2100,0.0800,0.0700,0.0000,2.4375,0.3125,0.22692871093750,-0.68450927734375,0.20098876953125,0.66296386718750,stop
179.79,3,1,3,3,0.1900,0.0600,0.1300,0.3125,2.8125,0.6875,0.22686767578125,-0.68469238281250,0.20111083984375,0.66284179687500,stop
179.80,3,1,3,3,0.1700,0.0500,0.1500,0.5000,2.6250,0.9375,0.22576904296875,-0.68505859375000,0.20019531250000,0.66302490234375,stop
179.81,3,1,3,3,0.1900,0.0500,0.1500,0.5000,2.2500,0.8125,0.22570800781250,-0.68518066406250,0.20031738281250,0.66296386718750,stop
179.82,3,1,3,3,0.2000,0.0000,0.1900,0.9375,1.6875,0.8750,0.22564697265625,-0.68518066406250,0.20043945312500,0.66290283203125,stop
179.83,3,1,3,3,0.2300,-0.0200,0.2100,0.8750,0.7500,0.4375,0.22570800781250,-0.68518066406250,0.20050048828125,0.66284179687500,stop
179.84,3,1,3,3,0.2200,0.0000,0.2000,0.6250,0.0625,0.1250,0.22576904296875,-0.68511962890625,0.20056152343750,0.66290283203125,stop
179.85,3,1,3,3,0.1900,0.0200,0.2000,0.2500,-0.0625,0.0000,0.22528076171875,-0.68518066406250,0.20001220703125,0.66314697265625,stop
179.86,3,1,3,3,0.1700,0.1100,0.1500,0.1875,-0.3750,0.0625,0.22528076171875,-0.68518066406250,0.20001220703125,0.66314697265625,stop
179.87,3,1,3,3,0.2000,0.0900,0.1400,0.2500,-0.3125,0.3125,0.22528076171875,-0.68511962890625,0.20001220703125,0.66320800781250,stop
179.88,3,1,3,3,0.2000,0.0700,0.1600,0.3125,-0.5625,0.2500,0.22528076171875,-0.68505859375000,0.20001220703125,0.66326904296875,stop
179.89,3,1,3,3,0.2000,0.0700,0.1500,0.1875,-0.2500,0.3125,0.22528076171875,-0.68499755859375,0.20001220703125,0.66333007812500,stop
179.90,3,1,3,3,0.2000,-0.0100,0.1300,0.0625,-0.8125,0.0625,0.22521972656250,-0.68493652343750,0.19989013671875,0.66345214843750,stop
179.91,3,1,3,3,0.1900,0.0200,0.1000,-0.3125,-1.1875,-0.1250,0.22528076171875,-0.68487548828125,0.19989013671875,0.66351318359375,stop
179.92,3,1,3,3,0.1700,0.0000,0.0500,-0.5625,-2.1250,-0.5000,0.22528076171875,-0.68475341796875,0.19982910156250,0.66369628906250,stop
179.93,3,1,3,3,0.2200,0.0200,0.0300,-0.9375,-3.0000,-0.6250,0.22528076171875,-0.68457031250000,0.19964599609375,0.66387939453125,stop
179.94,3,1,3,3,0.3400,0.0800,-0.0100,-0.6875,-3.2500,-0.5625,0.22534179687500,-0.68438720703125,0.19952392578125,0.66406250000000,stop
179.95,3,1,3,3,0.2700,0.0900,-0.0500,-0.5000,-2.8125,-0.6250,0.22521972656250,-0.68432617187500,0.19921875000000,0.66430664062500,stop
179.96,3,1,3,3,0.2600,0.0900,-0.0700,-0.5000,-1.6875,-0.3125,0.22521972656250,-0.68420410156250,0.19915771484375,0.66442871093750,stop
179.97,3,1,3,3,0.2800,0.0500,-0.0800,-0.7500,-0.6250,-0.1875,0.22521972656250,-0.68420410156250,0.19915771484375,0.66448974609375,stop
179.98,3,1,3,3,0.2200,-0.0300,-0.0800,-0.9375,0.2500,-0.1250,0.22515869140625,-0.68420410156250,0.19909667968750,0.66448974609375,stop
179.99,3,1,3,3,0.2200,-0.0600,-0.0400,-0.7500,1.0000,-0.0625,0.22503662109375,-0.68432617187500,0.19903564453125,0.66442871093750,stop
180.00,3,1,3,3,0.2700,-0.0500,-0.0300,-0.4375,1.0625,-0.4375,0.22509765625000,-0.68432617187500,0.19909667968750,0.66436767578125,stop
180.01,3,1,3,3,0.2700,0.0300,-0.0100,0.0000,0.5625,-0.2500,0.22509765625000,-0.68438720703125,0.19909667968750,0.66430664062500,stop
180.02,3,1,3,3,0.2500,0.0700,0.0000,0.1875,0.6250,-0.3750,0.22503662109375,-0.68444824218750,0.19915771484375,0.66424560546875,stop
180.03,3,1,3,3,0.2900,0.0700,-0.0100,0.4375,0.6250,-0.1250,0.22503662109375,-0.68444824218750,0.19915771484375,0.66424560546875,stop
180.04,3,1,3,3,0.3000,0.0200,-0.0200,0.4375,0.7500,0.0000,0.22503662109375,-0.68450927734375,0.19915771484375,0.66418457031250,stop
180.05,3,1,3,3,0.3100,0.0000,-0.0100,0.4375,0.8125,0.0000,0.22503662109375,-0.68457031250000,0.19921875000000,0.66412353515625,stop
180.06,3,1,3,3,0.2900,-0.0100,-0.0300,0.0625,1.0625,-0.3125,0.22503662109375,-0.68463134765625,0.19921875000000,0.66406250000000,stop
180.07,3,1,3,3,0.2600,-0.0300,-0.0400,0.0000,1.6250,-0.4375,0.22497558593750,-0.68469238281250,0.19927978515625,0.66400146484375,stop
180.08,3,1,3,3,0.2400,0.0100,-0.0300,0.0000,2.1875,-0.4375,0.22491455078125,-0.68481445312500,0.19927978515625,0.66381835937500,stop
180.09,3,1,3,3,0.2400,0.0600,-0.0400,0.0000,2.2500,0.0000,0.22491455078125,-0.68493652343750,0.19934082031250,0.66369628906250,stop
180.10,3,1,3,3,0.2600,0.0200,-0.0200,0.0625,2.4375,0.1250,0.22503662109375,-0.68505859375000,0.19958496093750,0.66351318359375,stop
180.11,3,1,3,3,0.2500,0.0200,-0.0300,0.4375,2.3750,0.3750,0.22497558593750,-0.68518066406250,0.19964599609375,0.66333007812500,stop
180.12,3,1,3,3,0.2400,-0.0300,-0.0500,0.3125,2.3750,0.1250,0.22497558593750,-0.68530273437500,0.19970703125000,0.66320800781250,stop
180.13,3,1,3,3,0.2500,-0.0200,-0.0400,0.0000,2.6250,-0.0625,0.22491455078125,-0.68548583984375,0.19976806640625,0.66302490234375,stop
180.14,3,1,3,3,0.2700,-0.0500,-0.0100,-0.1250,3.0000,-0.2500,0.22485351562500,-0.68566894531250,0.19982910156250,0.66284179687500,stop
180.15,3,1,3,3,0.2500,-0.1100,-0.0200,-0.3750,3.1250,-0.4375,0.22460937500000,-0.68591308593750,0.19964599609375,0.66271972656250,stop
180.16,3,1,3,3,0.2700,-0.1400,-0.0300,-0.3125,3.6250,-0.8125,0.22460937500000,-0.68615722656250,0.19964599609375,0.66247558593750,stop
180.17,3,1,3,3,0.3600,-0.0500,0.0000,-0.0625,4.0625,-1.3750,0.22460937500000,-0.68640136718750,0.19964599609375,0.66223144531250,stop
180.18,3,1,3,3,0.3000,0.0000,0.0300,0.0625,4.6875,-1.8125,0.22467041015625,-0.68670654296875,0.19964599609375,0.66192626953125,stop
180.19,3,1,3,3,0.2800,0.0000,0.0800,0.1250,5.4375,-2.0000,0.22467041015625,-0.68707275390625,0.19964599609375,0.66156005859375,stop
180.20,3,1,3,3,0.3100,-0.0800,0.1400,0.6250,6.3125,-2.2500,0.22473144531250,-0.68743896484375,0.19958496093750,0.66113281250000,stop
180.21,3,1,3,3,0.2300,-0.1500,0.1400,0.8750,6.0625,-2.5000,0.22485351562500,-0.68780517578125,0.19958496093750,0.66070556640625,stop
180.22,3,1,3,3,0.2400,-0.2200,0.1700,0.9375,5.5000,-2.5625,0.22503662109375,-0.68811035156250,0.19958496093750,0.66033935546875,stop
180.23,3,1,3,3,0.2700,-0.2400,0.1500,0.9375,4.6875,-3.0000,0.22521972656250,-0.68841552734375,0.19946289062500,0.65997314453125,stop
180.24,3,1,3,3,0.1800,-0.1900,0.1000,0.5625,4.1250,-3.4375,0.22546386718750,-0.68865966796875,0.19934082031250,0.65966796875000,stop
180.25,3,1,3,3,0.2100,-0.2100,0.0900,1.0625,3.1250,-3.6875,0.22570800781250,-0.68890380859375,0.19915771484375,0.65942382812500,stop
180.26,3,1,3,3,0.2600,-0.2000,0.0200,2.1250,2.8125,-4.1250,0.22613525390625,-0.68908691406250,0.19903564453125,0.65911865234375,stop
180.27,3,1,3,3,0.2400,-0.1800,0.0000,2.2500,1.9375,-4.6250,0.22656250000000,-0.68920898437500,0.19885253906250,0.65887451171875,stop
180.28,3,1,3,3,0.2100,-0.0200,-0.0500,2.1250,2.0000,-5.2500,0.22692871093750,-0.68939208984375,0.19873046875000,0.65863037109375,stop
180.29,3,1,3,3,0.1500,0.1200,-0.0400,2.6875,2.5625,-5.4375,0.22735595703125,-0.68957519531250,0.19860839843750,0.65826416015625,stop
180.30,3,1,3,3,0.1800,0.1900,0.0100,4.9375,3.9375,-4.8750,0.22784423828125,-0.68981933593750,0.19860839843750,0.65789794921875,stop
180.31,3,1,3,3,0.2800,0.1900,0.0200,6.5000,5.1250,-4.1875,0.22839355468750,-0.69000244140625,0.19885253906250,0.65740966796875,stop
180.32,3,1,3,3,0.3200,-0.0600,0.0300,5.4375,6.5000,-4.1875,0.22888183593750,-0.69036865234375,0.19903564453125,0.65679931640625,stop
180.33,3,1,3,3,0.3500,-0.2100,0.0500,3.8125,7.3750,-4.9375,0.22924804687500,-0.69079589843750,0.19909667968750,0.65618896484375,stop
180.34,3,1,3,3,0.3400,-0.2800,0.0300,2.0625,6.6875,-6.0000,0.22961425781250,-0.69122314453125,0.19897460937500,0.65563964843750,stop
180.35,3,1,3,3,0.3800,-0.3900,-0.0800,0.2500,5.5000,-7.8750,0.22998046875000,-0.69171142578125,0.19860839843750,0.65515136718750,stop
180.36,3,1,3,3,0.3800,-0.3200,-0.1300,-1.2500,4.6250,-9.8750,0.23034667968750,-0.69213867187500,0.19805908203125,0.65466308593750,stop
180.37,3,1,3,3,0.4200,-0.1200,-0.1900,-2.7500,4.6250,-11.8750,0.23083496093750,-0.69268798828125,0.19726562500000,0.65423583984375,stop
180.38,3,1,3,3,0.5100,0.0000,-0.1700,-3.1875,6.1250,-13.7500,0.23132324218750,-0.69335937500000,0.19635009765625,0.65362548828125,stop
180.39,3,1,3,3,0.4200,0.1600,-0.2500,-3.6250,7.8125,-15.1250,0.23181152343750,-0.69415283203125,0.19543457031250,0.65283203125000,stop
180.40,3,1,3,3,0.4700,0.2100,-0.2000,-3.5000,9.8125,-16.3125,0.23223876953125,-0.69512939453125,0.19433593750000,0.65203857421875,stop
180.41,3,1,3,3,0.4300,0.2900,-0.2100,-2.3125,12.0625,-16.8750,0.23284912109375,-0.69610595703125,0.19342041015625,0.65100097656250,stop
180.42,3,1,3,3,0.4000,0.3900,-0.1700,-1.7500,14.2500,-16.9375,0.23345947265625,-0.69726562500000,0.19256591796875,0.64978027343750,stop
180.43,3,1,3,3,0.4500,0.5800,-0.1000,-1.1875,16.3750,-16.7500,0.23406982421875,-0.69848632812500,0.19183349609375,0.64849853515625,stop
180.44,3,1,3,3,0.5200,0.7900,-0.0700,-1.0000,16.3125,-16.0625,0.23461914062500,-0.69970703125000,0.19110107421875,0.64715576171875,stop
180.45,3,1,3,3,0.4400,1.1600,-0.1000,-0.7500,16.3750,-15.3125,0.23486328125000,-0.70098876953125,0.19006347656250,0.64599609375000,stop
180.45,3,1,3,3,0.4400,1.1600,-0.1000,-0.7500,16.3750,-15.3125,0.23486328125000,-0.70098876953125,0.19006347656250,0.64599609375000,stop
180.46,3,1,3,3,0.5800,1.5600,0.0300,-0.8750,15.6875,-14.0625,0.23529052734375,-0.70214843750000,0.18945312500000,0.64477539062500,stop
180.46,3,1,3,3,0.3200,2.2600,-0.0500,0.6875,15.6875,-12.1875,0.23577880859375,-0.70318603515625,0.18908691406250,0.64355468750000,stop
180.47,3,1,3,3,0.1800,2.6100,-0.0400,2.6250,14.5000,-9.5000,0.23626708984375,-0.70410156250000,0.18896484375000,0.64239501953125,stop
180.48,3,1,3,3,-0.0300,2.9800,0.0000,4.5625,13.7500,-5.1875,0.23657226562500,-0.70489501953125,0.18920898437500,0.64135742187500,stop
180.49,3,1,3,3,-0.3100,3.3600,-0.0300,5.0000,13.5000,0.5000,0.23663330078125,-0.70556640625000,0.18975830078125,0.64044189453125,stop
180.50,3,1,3,3,-0.6800,3.9900,-0.0100,2.6250,13.5625,6.8750,0.23620605468750,-0.70611572265625,0.19061279296875,0.63970947265625,stop
180.51,3,1,3,3,-0.7300,4.1700,0.0600,-1.0625,14.5625,13.3750,0.23510742187500,-0.70672607421875,0.19171142578125,0.63916015625000,stop
180.52,3,1,3,3,-0.8000,4.3000,0.0700,-4.3125,15.8125,20.0000,0.23345947265625,-0.70739746093750,0.19305419921875,0.63867187500000,stop
180.53,3,1,3,3,-0.7400,4.3700,0.1900,-6.3125,13.8750,26.5625,0.23132324218750,-0.70782470703125,0.19464111328125,0.63842773437500,stop
180.54,3,1,3,3,-0.7200,4.3200,0.3100,-6.8750,9.3750,32.8125,0.22888183593750,-0.70788574218750,0.19647216796875,0.63861083984375,stop
180.55,3,1,3,3,-0.6300,4.2300,0.4100,-7.6875,3.1875,38.5000,0.22619628906250,-0.70758056640625,0.19848632812500,0.63934326171875,stop
180.56,3,1,3,3,-0.4500,4.2300,0.5000,-9.0625,-3.0625,43.8125,0.22320556640625,-0.70678710937500,0.20068359375000,0.64056396484375,stop
180.57,3,1,3,3,0.0200,4.2600,0.6400,-12.0625,-9.3750,49.5625,0.21984863281250,-0.70562744140625,0.20288085937500,0.64233398437500,stop
180.58,3,1,3,3,0.3000,4.1500,0.7000,-16.0000,-14.2500,56.0625,0.21594238281250,-0.70416259765625,0.20520019531250,0.64459228515625,stop
180.59,3,1,3,3,0.4300,4.0200,0.6700,-19.0000,-17.5625,63.6250,0.21130371093750,-0.70239257812500,0.20758056640625,0.64721679687500,stop
180.60,3,1,3,3,0.5700,3.7500,0.6600,-21.8750,-18.5000,71.0625,0.20623779296875,-0.70043945312500,0.21038818359375,0.65008544921875,stop
180.61,3,1,3,3,0.5600,3.2600,0.5000,-25.6875,-19.0625,78.2500,0.20056152343750,-0.69836425781250,0.21337890625000,0.65313720703125,stop
180.62,3,1,3,3,0.4500,2.8000,0.3500,-30.7500,-20.5000,84.8750,0.19421386718750,-0.69610595703125,0.21649169921875,0.65643310546875,stop
180.63,3,1,3,3,0.4500,2.1700,0.2500,-34.3750,-23.0000,90.1875,0.18731689453125,-0.69360351562500,0.21960449218750,0.65997314453125,stop
180.64,3,1,3,3,0.4900,1.5600,0.2300,-36.2500,-28.3125,94.6250,0.18017578125000,-0.69073486328125,0.22283935546875,0.66394042968750,stop
180.65,3,1,3,3,0.7900,0.0400,0.1600,-40.4375,-30.9375,97.1250,0.17266845703125,-0.68762207031250,0.22589111328125,0.66809082031250,stop
180.66,3,1,3,3,0.7500,-0.9300,0.1200,-46.3125,-29.6875,97.6875,0.16473388671875,-0.68463134765625,0.22863769531250,0.67224121093750,stop
180.67,3,1,3,3,0.6500,-1.7600,0.0100,-49.3125,-27.5625,95.8750,0.15667724609375,-0.68176269531250,0.23107910156250,0.67620849609375,stop
180.68,3,1,3,3,0.5100,-3.3700,-0.2700,-50.5625,-27.5000,90.6875,0.14886474609375,-0.67889404296875,0.23315429687500,0.68011474609375,stop
180.69,3,1,3,3,0.5600,-4.3300,-0.4200,-49.0625,-29.3125,82.6250,0.14178466796875,-0.67602539062500,0.23492431640625,0.68389892578125,stop
180.70,3,1,3,3,0.5300,-5.2000,-0.7400,-47.1250,-32.8125,74.3125,0.13519287109375,-0.67309570312500,0.23608398437500,0.68768310546875,stop
180.71,3,1,3,3,0.5500,-6.1700,-0.9200,-46.3125,-36.4375,65.3750,0.12927246093750,-0.67010498046875,0.23675537109375,0.69152832031250,stop
180.72,3,1,3,3,0.5500,-6.1700,-0.9200,-46.3125,-36.4375,65.3750,0.12927246093750,-0.67010498046875,0.23675537109375,0.69152832031250,stop
180.72,3,1,3,3,0.1600,-7.8700,-1.5600,-42.0000,-38.6875,55.8750,0.12420654296875,-0.66705322265625,0.23706054687500,0.69531250000000,stop
180.73,3,1,3,3,-0.1000,-8.5000,-2.2400,-33.8750,-43.9375,46.8125,0.12030029296875,-0.66375732421875,0.23724365234375,0.69903564453125,stop
180.74,3,1,3,3,-0.3400,-9.0100,-1.6100,-25.5625,-50.0625,38.1250,0.11804199218750,-0.65997314453125,0.23785400390625,0.70275878906250,stop
180.75,3,1,3,3,-0.8200,-9.3800,-2.8200,-18.5625,-41.5000,29.6250,0.11602783203125,-0.65698242187500,0.23803710937500,0.70587158203125,stop
180.76,3,1,3,3,-0.8100,-8.1700,-3.0900,-7.1250,-33.1875,23.4375,0.11480712890625,-0.65454101562500,0.23858642578125,0.70812988281250,stop
180.77,3,1,3,3,-0.4000,-6.9100,-3.1100,2.4375,-13.6250,16.2500,0.11425781250000,-0.65332031250000,0.23950195312500,0.70904541015625,stop
180.78,3,1,3,3,-0.3900,-5.6700,-2.8400,11.6875,10.6875,8.7500,0.11419677734375,-0.65368652343750,0.24084472656250,0.70825195312500,stop
180.79,3,1,3,3,-0.8900,-4.7700,-2.3500,23.0625,34.8125,2.6250,0.11462402343750,-0.65557861328125,0.24273681640625,0.70581054687500,stop
180.80,3,1,3,3,-2.0300,-4.5100,-1.2900,34.1875,57.5000,-3.5625,0.11560058593750,-0.65887451171875,0.24523925781250,0.70172119140625,stop
180.81,3,1,3,3,-2.2700,-5.1200,-0.3900,53.7500,72.3750,-9.1250,0.11773681640625,-0.66296386718750,0.24865722656250,0.69628906250000,stop
180.82,3,1,3,3,-2.1600,-5.6900,0.4200,81.7500,71.6875,-12.9375,0.12170410156250,-0.66674804687500,0.25360107421875,0.69018554687500,stop
180.83,3,1,3,3,-1.7700,-5.9400,0.9100,95.5625,61.0625,-20.0625,0.12713623046875,-0.66986083984375,0.25878906250000,0.68426513671875,stop
180.84,3,1,3,3,-0.4800,-6.3300,1.3700,91.5000,46.5000,-32.0625,0.13336181640625,-0.67230224609375,0.26287841796875,0.67907714843750,stop
180.85,3,1,3,3,-0.0200,-6.4400,1.0200,80.6875,33.5000,-46.2500,0.14013671875000,-0.67443847656250,0.26525878906250,0.67468261718750,stop
180.86,3,1,3,3,0.5100,-6.4700,0.7800,74.0000,16.3125,-60.1875,0.14764404296875,-0.67584228515625,0.26623535156250,0.67120361328125,stop
180.87,3,1,3,3,1.1100,-5.9500,-0.2200,76.3750,-1.7500,-73.2500,0.15655517578125,-0.67645263671875,0.26629638671875,0.66857910156250,stop
180.88,3,1,3,3,1.2900,-5.5600,-0.7000,82.6875,-16.7500,-84.3750,0.16674804687500,-0.67626953125000,0.26586914062500,0.66644287109375,stop
180.89,3,1,3,3,1.2700,-5.1200,-1.2100,88.9375,-27.1250,-95.0000,0.17822265625000,-0.67559814453125,0.26495361328125,0.66455078125000,stop
180.90,3,1,3,3,1.1700,-4.5600,-1.6200,93.0000,-31.5000,-105.3125,0.19055175781250,-0.67474365234375,0.26361083984375,0.66253662109375,stop
180.91,3,1,3,3,0.9600,-2.9700,-2.0800,92.6875,-29.5625,-114.3125,0.20336914062500,-0.67407226562500,0.26165771484375,0.66015625000000,stop
180.92,3,1,3,3,0.9300,-1.8200,-2.2100,86.4375,-20.3125,-120.7500,0.21588134765625,-0.67407226562500,0.25909423828125,0.65716552734375,stop
180.93,3,1,3,3,0.8900,-0.6800,-2.3100,71.6875,-8.7500,-127.3750,0.22766113281250,-0.67510986328125,0.25549316406250,0.65356445312500,stop
180.94,3,1,3,3,0.5800,0.2300,-2.2300,49.9375,5.1875,-131.8750,0.23803710937500,-0.67730712890625,0.25061035156250,0.64947509765625,stop
180.95,3,1,3,3,0.0200,1.9500,-2.1600,29.5625,19.5625,-134.0000,0.24694824218750,-0.68072509765625,0.24468994140625,0.64477539062500,stop
180.96,3,1,3,3,-0.2100,3.0300,-1.8300,19.1250,30.0625,-131.3125,0.25488281250000,-0.68475341796875,0.23852539062500,0.63970947265625,stop
180.97,3,1,3,3,-0.4000,4.3500,-1.3400,19.5000,42.4375,-125.5000,0.26220703125000,-0.68927001953125,0.23303222656250,0.63391113281250,stop
180.98,3,1,3,3,-0.4000,4.3500,-1.3400,19.5000,42.4375,-125.5000,0.26220703125000,-0.68927001953125,0.23303222656250,0.63391113281250,moving
180.98,3,1,3,3,-0.7800,5.7800,-0.8300,28.9375,52.3750,-114.9375,0.26922607421875,-0.69384765625000,0.22888183593750,0.62744140625000,moving
180.99,3,1,3,3,-1.7900,8.2500,0.0400,41.0000,60.9375,-103.1875,0.27618408203125,-0.69824218750000,0.22625732421875,0.62048339843750,moving
181.00,3,1,3,3,-2.7700,8.7200,0.0800,48.2500,65.2500,-88.7500,0.28265380859375,-0.70233154296875,0.22497558593750,0.61334228515625,moving
181.01,3,1,3,3,-3.4900,9.5800,0.3500,52.5625,54.8750,-74.3750,0.28881835937500,-0.70544433593750,0.22454833984375,0.60705566406250,moving
181.02,3,1,3,3,-4.3400,11.0100,0.5700,51.0625,50.0625,-60.1250,0.29412841796875,-0.70794677734375,0.22479248046875,0.60144042968750,moving
181.03,3,1,3,3,-4.0600,11.1300,0.9900,38.8750,51.6875,-49.8750,0.29815673828125,-0.71063232421875,0.22509765625000,0.59619140625000,moving
181.04,3,1,3,3,-3.4500,11.0900,1.5100,34.0000,37.1250,-37.1875,0.30145263671875,-0.71240234375000,0.22546386718750,0.59222412109375,moving
181.05,3,1,3,3,-2.6700,10.1600,1.7100,33.8750,34.3750,-29.3750,0.30444335937500,-0.71386718750000,0.22631835937500,0.58862304687500,moving
181.06,3,1,3,3,-1.3300,8.1600,1.7400,31.5000,26.1875,-17.0625,0.30670166015625,-0.71472167968750,0.22760009765625,0.58593750000000,moving
181.07,3,1,3,3,-1.2400,6.5800,1.9800,26.0000,20.8750,-0.4375,0.30792236328125,-0.71508789062500,0.22949218750000,0.58410644531250,moving
181.08,3,1,3,3,-2.1400,5.4000,1.8900,7.0625,41.8750,14.1250,0.30676269531250,-0.71673583984375,0.23187255859375,0.58172607421875,moving
181.09,3,1,3,3,-3.0400,4.8400,1.8800,-23.4375,63.1250,24.2500,0.30279541015625,-0.72003173828125,0.23388671875000,0.57891845703125,moving
181.10,3,1,3,3,-4.2600,4.0500,1.8500,-45.6875,69.9375,31.1875,0.29687500000000,-0.72412109375000,0.23541259765625,0.57629394531250,moving
181.11,3,1,3,3,-4.2100,4.3800,2.2400,-49.1875,52.4375,38.1875,0.29071044921875,-0.72723388671875,0.23675537109375,0.57495117187500,moving
181.12,3,1,3,3,-3.7600,4.9600,2.6400,-44.3125,22.0000,45.1875,0.28515625000000,-0.72845458984375,0.23797607421875,0.57568359375000,moving
181.13,3,1,3,3,-3.2200,5.2600,2.1000,-45.5000,-5.4375,51.1250,0.27978515625000,-0.72827148437500,0.23883056640625,0.57824707031250,moving
181.14,3,1,3,3,-2.5700,5.5900,1.4500,-53.8125,-34.3125,56.1875,0.27416992187500,-0.72662353515625,0.23883056640625,0.58294677734375,moving
181.15,3,1,3,3,-2.3000,5.4800,1.1600,-65.1875,-58.1875,61.2500,0.26806640625000,-0.72387695312500,0.23803710937500,0.58947753906250,moving
181.16,3,1,3,3,-2.3000,5.3800,0.7500,-74.8125,-73.6250,66.1250,0.26147460937500,-0.72039794921875,0.23669433593750,0.59716796875000,moving
181.17,3,1,3,3,-2.3800,4.9700,0.4700,-79.8750,-78.5625,74.0625,0.25415039062500,-0.71655273437500,0.23541259765625,0.60546875000000,moving
181.18,3,1,3,3,-1.9800,3.6400,0.0000,-76.3125,-77.4375,84.2500,0.24645996093750,-0.71234130859375,0.23492431640625,0.61370849609375,moving
181.19,3,1,3,3,-1.6900,2.7500,0.0300,-69.4375,-78.7500,95.0625,0.23858642578125,-0.70758056640625,0.23547363281250,0.62207031250000,moving
181.20,3,1,3,3,-1.5300,1.8200,0.0300,-67.0625,-79.5000,103.5000,0.23040771484375,-0.70245361328125,0.23657226562500,0.63049316406250,moving
181.21,3,1,3,3,-0.8000,-0.0400,0.0800,-71.8750,-76.1250,107.4375,0.22155761718750,-0.69738769531250,0.23773193359375,0.63879394531250,moving
181.22,3,1,3,3,-0.3100,-1.1200,0.1600,-77.4375,-74.4375,108.6250,0.21228027343750,-0.69238281250000,0.23858642578125,0.64703369140625,moving
181.23,3,1,3,3,0.1400,-2.2400,0.1300,-79.0625,-73.1250,107.0000,0.20294189453125,-0.68737792968750,0.23925781250000,0.65502929687500,moving
181.24,3,1,3,3,0.1400,-2.2400,0.1300,-79.0625,-73.1250,107.0000,0.20294189453125,-0.68737792968750,0.23925781250000,0.65502929687500,moving
181.24,3,1,3,3,0.5500,-3.6100,0.1600,-72.0625,-74.5000,103.5000,0.19421386718750,-0.68212890625000,0.24005126953125,0.66284179687500,moving
181.25,3,1,3,3,1.1900,-5.3000,-0.6000,-56.4375,-78.0000,100.6875,0.18658447265625,-0.67639160156250,0.24145507812500,0.67034912109375,moving
181.26,3,1,3,3,1.3000,-6.4700,-1.4300,-47.7500,-84.9375,95.5000,0.17993164062500,-0.67010498046875,0.24291992187500,0.67785644531250,moving
181.27,3,1,3,3,1.8900,-7.7800,-1.6800,-48.1250,-104.8750,80.7500,0.17456054687500,-0.66290283203125,0.24316406250000,0.68627929687500,moving
181.28,3,1,3,3,2.5600,-8.6400,-2.0900,-58.6250,-119.8125,61.8125,0.16992187500000,-0.65521240234375,0.24139404296875,0.69537353515625,moving
181.29,3,1,3,3,2.5800,-10.2300,-2.6100,-78.1250,-102.3750,47.0000,0.16473388671875,-0.64910888671875,0.23785400390625,0.70355224609375,moving
181.30,3,1,3,3,3.0900,-10.3300,-5.2900,-76.1250,-58.7500,34.5000,0.15954589843750,-0.64581298828125,0.23425292968750,0.70892333984375,moving
181.31,3,1,3,3,3.5700,-11.5400,-6.0200,-37.5000,-20.7500,25.3125,0.15625000000000,-0.64453125000000,0.23309326171875,0.71118164062500,moving
181.32,3,1,3,3,2.9700,-11.8800,-7.1400,33.8750,-5.3125,29.3750,0.15643310546875,-0.64312744140625,0.23675537109375,0.71124267578125,moving
181.33,3,1,3,3,2.7300,-8.4000,-6.6600,109.2500,-7.8125,34.8750,0.16058349609375,-0.64038085937500,0.24536132812500,0.70983886718750,moving
181.34,3,1,3,3,2.2300,-6.5200,-5.5300,141.7500,-8.6250,29.1250,0.16687011718750,-0.63720703125000,0.25561523437500,0.70764160156250,moving
181.35,3,1,3,3,2.2900,-5.2700,-4.2800,117.6250,0.8750,13.6875,0.17254638671875,-0.63525390625000,0.26367187500000,0.70513916015625,moving
181.36,3,1,3,3,2.4000,-5.4900,-3.5800,60.6250,28.0625,-8.0625,0.17578125000000,-0.63623046875000,0.26733398437500,0.70202636718750,moving
181.37,3,1,3,3,2.3700,-6.1200,-3.3200,2.0625,48.5625,-31.5625,0.17669677734375,-0.63995361328125,0.26641845703125,0.69879150390625,moving
181.38,3,1,3,3,2.3000,-6.1700,-3.0000,-36.9375,54.8750,-52.1250,0.17657470703125,-0.64508056640625,0.26208496093750,0.69573974609375,moving
181.39,3,1,3,3,1.8400,-5.7600,-2.8100,-51.1875,57.6875,-66.7500,0.17645263671875,-0.65087890625000,0.25610351562500,0.69256591796875,moving
181.40,3,1,3,3,-0.3500,-4.8700,-1.9500,-48.0625,61.1250,-77.0625,0.17700195312500,-0.65704345703125,0.24969482421875,0.68890380859375,moving
181.41,3,1,3,3,-1.6600,-4.5100,-1.2900,-36.8125,70.8750,-83.7500,0.17840576171875,-0.66369628906250,0.24371337890625,0.68432617187500,moving
181.42,3,1,3,3,-2.8600,-3.3200,-0.5800,-3.9375,77.5000,-78.7500,0.18127441406250,-0.67004394531250,0.24011230468750,0.67858886718750,moving
181.43,3,1,3,3,-3.0200,-2.4300,0.5600,58.5000,69.3750,-67.6875,0.18725585937500,-0.67468261718750,0.24066162109375,0.67218017578125,moving
181.44,3,1,3,3,-1.4700,-2.3200,1.5000,129.6250,54.2500,-60.5625,0.19732666015625,-0.67694091796875,0.24554443359375,0.66522216796875,moving
181.45,3,1,3,3,-0.7500,-2.2400,2.2000,165.9375,27.0625,-60.8125,0.21008300781250,-0.67694091796875,0.25195312500000,0.65887451171875,moving
181.46,3,1,3,3,-0.0900,-2.0700,1.5400,149.6250,27.9375,-73.5625,0.22259521484375,-0.67736816406250,0.25665283203125,0.65252685546875,moving
181.47,3,1,3,3,0.1900,-2.0900,0.7500,111.1875,40.6875,-90.0000,0.23339843750000,-0.67950439453125,0.25842285156250,0.64575195312500,moving
181.48,3,1,3,3,-0.2200,-0.5800,0.6800,80.4375,25.6875,-100.5000,0.24322509765625,-0.68157958984375,0.25744628906250,0.64031982421875,moving
181.49,3,1,3,3,-0.4400,0.7900,1.0900,58.4375,11.4375,-107.4375,0.25250244140625,-0.68334960937500,0.25451660156250,0.63598632812500,moving
181.50,3,1,3,3,-0.4400,0.7900,1.0900,58.4375,11.4375,-107.4375,0.25250244140625,-0.68334960937500,0.25451660156250,0.63598632812500,moving
181.50,3,1,3,3,-0.7900,2.0000,1.1900,40.2500,2.1875,-109.3125,0.26092529296875,-0.68499755859375,0.25024414062500,0.63250732421875,moving
181.51,3,1,3,3,-1.1800,3.3500,1.1200,27.6875,0.7500,-107.1875,0.26849365234375,-0.68676757812500,0.24530029296875,0.62933349609375,moving
181.52,3,1,3,3,-1.7400,5.8800,0.8100,21.5000,7.1875,-101.1250,0.27520751953125,-0.68878173828125,0.24060058593750,0.62603759765625,moving
181.53,3,1,3,3,-2.1900,7.2500,0.3600,14.7500,21.4375,-91.4375,0.28070068359375,-0.69152832031250,0.23632812500000,0.62219238281250,moving
181.54,3,1,3,3,-2.7700,8.6000,-0.0500,3.3125,27.3750,-81.3125,0.28479003906250,-0.69458007812500,0.23229980468750,0.61846923828125,moving
181.55,3,1,3,3,-4.0800,11.3300,-0.0500,-10.7500,24.3125,-70.6250,0.28741455078125,-0.69763183593750,0.22796630859375,0.61541748046875,moving
181.56,3,1,3,3,-4.2300,12.4100,0.5200,-18.5625,23.0000,-53.8750,0.28875732421875,-0.70037841796875,0.22430419921875,0.61303710937500,moving
181.57,3,1,3,3,-3.9900,13.8400,0.4700,-12.5625,29.8125,-34.8125,0.28924560546875,-0.70300292968750,0.22222900390625,0.61053466796875,moving
181.58,3,1,3,3,-3.4000,12.9900,0.4000,0.8125,32.5000,-20.3125,0.28973388671875,-0.70507812500000,0.22186279296875,0.60803222656250,moving
181.59,3,1,3,3,-1.5800,8.3200,1.6500,18.5000,23.6875,-12.5000,0.29107666015625,-0.70611572265625,0.22265625000000,0.60589599609375,moving
181.60,3,1,3,3,-1.7800,7.3500,1.3200,35.1875,32.2500,7.1875,0.29223632812500,-0.70678710937500,0.22583007812500,0.60339355468750,moving
181.61,3,1,3,3,-2.0700,6.5600,2.0000,33.1875,40.5625,28.9375,0.29193115234375,-0.70745849609375,0.23040771484375,0.60101318359375,moving
181.62,3,1,3,3,-2.6400,6.0000,2.0200,10.1250,58.1250,40.9375,0.28918457031250,-0.70941162109375,0.23492431640625,0.59826660156250,moving
181.63,3,1,3,3,-2.3800,6.1100,2.5100,-11.8125,60.7500,51.0000,0.28454589843750,-0.71179199218750,0.23907470703125,0.59600830078125,moving
181.64,3,1,3,3,-2.0300,6.3300,2.5900,-23.3125,36.4375,61.1875,0.27911376953125,-0.71295166015625,0.24255371093750,0.59576416015625,moving
181.65,3,1,3,3,-1.7000,6.3600,2.7000,-32.6875,13.6250,69.0625,0.27313232421875,-0.71295166015625,0.24554443359375,0.59729003906250,moving
181.66,3,1,3,3,-1.6900,5.5500,2.5000,-44.5000,-8.7500,77.3750,0.26647949218750,-0.71185302734375,0.24780273437500,0.60064697265625,moving
181.67,3,1,3,3,-1.6500,4.5900,1.5700,-55.0000,-29.5000,84.1875,0.25921630859375,-0.70971679687500,0.24951171875000,0.60565185546875,moving
181.68,3,1,3,3,-1.6500,4.0300,1.0300,-62.6875,-53.3125,89.9375,0.25170898437500,-0.70629882812500,0.25061035156250,0.61236572265625,moving
181.69,3,1,3,3,-1.6300,3.3700,0.7400,-70.5000,-69.3750,94.9375,0.24377441406250,-0.70202636718750,0.25115966796875,0.62023925781250,moving
181.70,3,1,3,3,-1.4700,2.7300,-0.0300,-76.9375,-76.2500,101.9375,0.23510742187500,-0.69720458984375,0.25164794921875,0.62872314453125,moving
181.71,3,1,3,3,-1.2300,2.3400,-0.4600,-80.5000,-75.6250,108.0000,0.22589111328125,-0.69219970703125,0.25225830078125,0.63732910156250,moving
181.72,3,1,3,3,-0.8500,1.8800,-0.8000,-82.1875,-75.6250,113.1250,0.21624755859375,-0.68707275390625,0.25305175781250,0.64587402343750,moving
181.73,3,1,3,3,-0.3700,1.0600,-1.1400,-82.5000,-76.3750,115.0625,0.20642089843750,-0.68164062500000,0.25390625000000,0.65441894531250,moving
181.74,3,1,3,3,0.5300,-1.2000,-1.1600,-81.8125,-73.9375,113.8750,0.19665527343750,-0.67626953125000,0.25469970703125,0.66265869140625,moving
181.75,3,1,3,3,0.8500,-2.7600,-1.4600,-77.3125,-64.0000,109.6250,0.18707275390625,-0.67138671875000,0.25561523437500,0.66998291015625,moving
181.76,3,1,3,3,0.8500,-2.7600,-1.4600,-77.3125,-64.0000,109.6250,0.18707275390625,-0.67138671875000,0.25561523437500,0.66998291015625,moving
181.76,3,1,3,3,1.2100,-4.2000,-1.5100,-75.3750,-54.8750,100.5000,0.17797851562500,-0.66711425781250,0.25622558593750,0.67651367187500,moving
181.77,3,1,3,3,1.3300,-5.9900,-1.3900,-78.0625,-47.5625,91.5000,0.16900634765625,-0.66339111328125,0.25622558593750,0.68243408203125,moving
181.78,3,1,3,3,2.3700,-8.1600,-2.0600,-73.0000,-40.3125,84.2500,0.16064453125000,-0.66009521484375,0.25616455078125,0.68762207031250,moving
181.79,3,1,3,3,2.3700,-9.4600,-2.0600,-49.9375,-49.2500,77.1250,0.15423583984375,-0.65606689453125,0.25695800781250,0.69262695312500,moving
181.80,3,1,3,3,2.3200,-10.5100,-1.4500,-19.1250,-73.9375,69.0000,0.15057373046875,-0.65026855468750,0.25872802734375,0.69824218750000,moving
181.81,3,1,3,3,2.5700,-10.4400,-1.5800,0.0000,-91.3750,58.5625,0.14904785156250,-0.64331054687500,0.26086425781250,0.70416259765625,moving
181.82,3,1,3,3,1.3700,-12.3600,-4.1600,-8.1875,-57.5000,37.1250,0.14758300781250,-0.63903808593750,0.26171875000000,0.70806884765625,moving
181.83,3,1,3,3,1.4800,-13.1100,-5.3300,-6.0000,-14.5625,17.4375,0.14648437500000,-0.63781738281250,0.26214599609375,0.70922851562500,moving
181.84,3,1,3,3,1.3800,-12.4200,-6.7000,23.2500,22.1875,9.1875,0.14672851562500,-0.63867187500000,0.26434326171875,0.70758056640625,moving
181.85,3,1,3,3,1.4300,-11.1600,-7.4900,69.9375,34.3750,8.5000,0.14929199218750,-0.63970947265625,0.26959228515625,0.70416259765625,moving
181.86,3,1,3,3,1.7100,-8.0300,-5.1000,100.5000,20.6250,5.5000,0.15411376953125,-0.63952636718750,0.27630615234375,0.70068359375000,moving
181.87,3,1,3,3,1.9300,-6.9300,-4.0600,85.6875,23.3750,-4.6250,0.15863037109375,-0.63989257812500,0.28155517578125,0.69720458984375,moving
181.88,3,1,3,3,2.0300,-6.3600,-3.2500,47.5000,47.0625,-23.0000,0.16156005859375,-0.64270019531250,0.28381347656250,0.69305419921875,moving
181.89,3,1,3,3,1.2300,-5.3100,-1.7200,20.3750,65.1250,-39.7500,0.16351318359375,-0.64733886718750,0.28369140625000,0.68829345703125,moving
181.90,3,1,3,3,-0.1200,-4.6900,-0.8800,14.4375,67.9375,-53.5625,0.16589355468750,-0.65252685546875,0.28247070312500,0.68328857421875,moving
181.91,3,1,3,3,-1.5900,-4.1100,0.5200,23.1250,59.7500,-62.1875,0.16949462890625,-0.65734863281250,0.28112792968750,0.67834472656250,moving
181.92,3,1,3,3,-2.4200,-3.8700,1.3200,56.4375,46.3125,-63.0000,0.17535400390625,-0.66076660156250,0.28149414062500,0.67333984375000,moving
181.93,3,1,3,3,-2.6800,-4.6100,1.9500,105.8750,34.3750,-63.0000,0.18432617187500,-0.66271972656250,0.28454589843750,0.66772460937500,moving
181.94,3,1,3,3,-1.8900,-5.0400,2.2100,141.1250,18.1250,-67.3125,0.19598388671875,-0.66314697265625,0.28912353515625,0.66198730468750,moving
181.95,3,1,3,3,-1.6500,-5.1300,1.8200,158.2500,-0.0625,-77.5000,0.20965576171875,-0.66235351562500,0.29370117187500,0.65661621093750,moving
181.97,3,1,3,3,-0.2600,-5.6000,1.1700,157.7500,-5.0000,-91.7500,0.22418212890625,-0.66143798828125,0.29724121093750,0.65106201171875,moving
181.98,3,1,3,3,-0.4400,-6.0000,-1.8200,143.8750,0.3125,-106.3750,0.23852539062500,-0.66137695312500,0.29919433593750,0.64514160156250,moving
181.99,3,1,3,3,-0.5000,-5.3400,-2.3100,120.5000,10.7500,-122.0000,0.25207519531250,-0.66259765625000,0.29907226562500,0.63873291015625,moving
182.00,3,1,3,3,-1.0300,-4.0700,-2.8000,94.9375,2.0000,-133.1875,0.26495361328125,-0.66406250000000,0.29663085937500,0.63311767578125,moving
182.01,3,1,3,3,-1.1000,-2.2700,-2.6300,69.9375,-3.1250,-140.8125,0.27691650390625,-0.66589355468750,0.29217529296875,0.62817382812500,moving
182.02,3,1,3,3,-0.9500,1.0600,-1.1700,43.8125,-8.0000,-145.8125,0.28771972656250,-0.66802978515625,0.28582763671875,0.62390136718750,moving
182.03,3,1,3,3,-0.9500,1.0600,-1.1700,43.8125,-8.0000,-145.8125,0.28771972656250,-0.66802978515625,0.28582763671875,0.62390136718750,moving
182.03,3,1,3,3,-0.8400,2.4100,-1.0300,16.7500,-6.5000,-147.1875,0.29687500000000,-0.67089843750000,0.27795410156250,0.62005615234375,moving
182.04,3,1,3,3,-0.7400,4.1000,-0.7800,-2.5625,-2.3750,-144.6250,0.30462646484375,-0.67431640625000,0.26916503906250,0.61645507812500,moving
182.05,3,1,3,3,-1.1900,7.7500,0.0000,-11.5625,3.6875,-136.1875,0.31121826171875,-0.67803955078125,0.26055908203125,0.61279296875000,moving
182.06,3,1,3,3,-1.5500,9.2000,-0.1600,-3.1250,16.0625,-119.2500,0.31707763671875,-0.68164062500000,0.25372314453125,0.60864257812500,moving
182.07,3,1,3,3,-2.7000,10.0600,-1.1200,7.6250,24.8125,-99.6875,0.32226562500000,-0.68499755859375,0.24884033203125,0.60418701171875,moving
182.08,3,1,3,3,-3.4300,12.3100,-0.3000,1.0000,16.2500,-82.4375,0.32635498046875,-0.68762207031250,0.24438476562500,0.60083007812500,moving
182.09,3,1,3,3,-3.7500,15.6100,0.2200,-11.8125,21.1875,-62.5625,0.32849121093750,-0.69036865234375,0.24060058593750,0.59796142578125,moving
182.10,3,1,3,3,-3.7200,16.5600,-0.0300,-16.0000,50.7500,-48.3125,0.32897949218750,-0.69451904296875,0.23828125000000,0.59387207031250,moving
182.11,3,1,3,3,-3.0200,16.2900,0.4200,-11.3125,66.6250,-35.0000,0.32873535156250,-0.69897460937500,0.23748779296875,0.58898925781250,moving
182.12,3,1,3,3,-1.5500,13.3100,1.8900,2.7500,66.1875,-30.5000,0.32904052734375,-0.70294189453125,0.23767089843750,0.58404541015625,moving
182.13,3,1,3,3,-0.5600,6.7500,2.3100,32.7500,52.8125,-18.6250,0.33087158203125,-0.70507812500000,0.23974609375000,0.57958984375000,moving
182.14,3,1,3,3,-1.7900,5.5100,2.6100,53.5000,49.5625,7.0625,0.33276367187500,-0.70587158203125,0.24432373046875,0.57562255859375,moving
182.15,3,1,3,3,-3.0200,4.7400,3.2800,37.5625,72.3125,23.5000,0.33233642578125,-0.70788574218750,0.24981689453125,0.57104492187500,moving
182.16,3,1,3,3,-4.0600,4.9600,2.7300,-0.8750,98.5625,37.8125,0.32818603515625,-0.71191406250000,0.25494384765625,0.56604003906250,moving
182.17,3,1,3,3,-4.1300,5.3200,2.9100,-37.3750,89.3125,48.1875,0.32147216796875,-0.71630859375000,0.25866699218750,0.56274414062500,moving
182.18,3,1,3,3,-3.6700,5.5000,3.2000,-57.7500,55.9375,53.4375,0.31390380859375,-0.71942138671875,0.26080322265625,0.56201171875000,moving
182.19,3,1,3,3,-3.1600,5.8400,3.1600,-67.8750,12.9375,59.6875,0.30639648437500,-0.72052001953125,0.26159667968750,0.56439208984375,moving
182.20,3,1,3,3,-2.7900,6.3100,2.7300,-77.5000,-24.0000,64.7500,0.29882812500000,-0.71984863281250,0.26123046875000,0.56945800781250,moving
182.21,3,1,3,3,-2.7000,6.5500,1.8600,-86.3125,-53.8750,67.3125,0.29119873046875,-0.71783447265625,0.25976562500000,0.57653808593750,moving
182.22,3,1,3,3,-2.5200,6.4500,1.3600,-90.7500,-77.5000,71.1875,0.28363037109375,-0.71453857421875,0.25775146484375,0.58526611328125,moving
182.23,3,1,3,3,-2.2600,5.8300,0.8800,-91.3750,-94.7500,76.6875,0.27612304687500,-0.71014404296875,0.25549316406250,0.59509277343750,moving
182.24,3,1,3,3,-2.3300,4.8000,0.0100,-89.0625,-101.5625,85.0000,0.26837158203125,-0.70501708984375,0.25372314453125,0.60540771484375,moving
182.25,3,1,3,3,-2.2500,4.2700,-0.5300,-87.5625,-103.5000,94.5625,0.26019287109375,-0.69940185546875,0.25250244140625,0.61590576171875,moving
182.26,3,1,3,3,-2.2800,3.6700,-0.8500,-91.2500,-104.8125,104.4375,0.25122070312500,-0.69342041015625,0.25164794921875,0.62664794921875,moving
182.27,3,1,3,3,-2.0700,2.5200,-0.9700,-99.5625,-101.5625,114.5000,0.24108886718750,-0.68743896484375,0.25091552734375,0.63745117187500,moving
182.28,3,1,3,3,-2.0700,2.5200,-0.9700,-99.5625,-101.5625,114.5000,0.24108886718750,-0.68743896484375,0.25091552734375,0.63745117187500,moving
182.28,3,1,3,3,-1.4900,0.2800,-0.6400,-101.9375,-94.3750,123.6875,0.23010253906250,-0.68145751953125,0.25067138671875,0.64794921875000,moving
182.29,3,1,3,3,-0.9000,-1.0300,-0.4300,-99.4375,-88.8125,131.0625,0.21862792968750,-0.67547607421875,0.25109863281250,0.65795898437500,moving
182.30,3,1,3,3,-0.3200,-2.7100,-0.7300,-94.5625,-80.1875,130.0000,0.20727539062500,-0.66967773437500,0.25183105468750,0.66717529296875,moving
182.31,3,1,3,3,-0.1200,-4.5800,-0.7800,-83.8750,-72.8750,124.6875,0.19665527343750,-0.66412353515625,0.25292968750000,0.67553710937500,moving
182.32,3,1,3,3,0.7900,-6.0000,-1.4000,-75.2500,-65.2500,118.9375,0.18664550781250,-0.65881347656250,0.25427246093750,0.68298339843750,moving
182.33,3,1,3,3,0.9300,-7.6500,-2.0200,-71.0625,-60.0625,109.5625,0.17730712890625,-0.65386962890625,0.25537109375000,0.68975830078125,moving
182.34,3,1,3,3,1.5800,-8.5100,-2.7000,-74.8125,-66.3750,97.5625,0.16857910156250,-0.64880371093750,0.25543212890625,0.69671630859375,moving
182.35,3,1,3,3,2.0800,-8.9500,-2.9700,-91.1875,-72.1250,84.6250,0.15985107421875,-0.64379882812500,0.25360107421875,0.70404052734375,moving
182.36,3,1,3,3,2.5600,-11.2700,-1.5700,-108.8750,-70.5625,65.1250,0.15124511718750,-0.63946533203125,0.24957275390625,0.71130371093750,moving
182.37,3,1,3,3,2.1800,-12.5700,-6.0000,-102.5625,-31.0000,43.5625,0.14349365234375,-0.63787841796875,0.24523925781250,0.71582031250000,moving
182.38,3,1,3,3,2.5400,-14.0800,-6.8100,-52.8750,1.8750,34.0625,0.13836669921875,-0.63793945312500,0.24389648437500,0.71722412109375,moving
182.39,3,1,3,3,2.7700,-13.2000,-9.5100,31.8750,13.0000,30.5000,0.13793945312500,-0.63769531250000,0.24774169921875,0.71618652343750,moving
182.40,3,1,3,3,2.6100,-10.8300,-8.4200,120.6250,13.6875,30.1875,0.14245605468750,-0.63641357421875,0.25708007812500,0.71313476562500,moving
182.41,3,1,3,3,2.2900,-8.9800,-6.9700,187.3125,6.4375,28.9375,0.15093994140625,-0.63372802734375,0.27038574218750,0.70886230468750,moving
182.42,3,1,3,3,2.1900,-7.6800,-5.3900,176.3125,10.7500,19.3125,0.15924072265625,-0.63159179687500,0.28247070312500,0.70428466796875,moving
182.43,3,1,3,3,1.7700,-5.8700,-2.9800,103.8125,23.4375,0.8750,0.16430664062500,-0.63153076171875,0.28918457031250,0.70037841796875,moving
182.44,3,1,3,3,1.3600,-5.9200,-2.6900,18.9375,46.4375,-22.0000,0.16558837890625,-0.63470458984375,0.28973388671875,0.69696044921875,moving
182.45,3,1,3,3,0.5500,-6.1200,-2.4300,-38.5625,62.3750,-44.2500,0.16455078125000,-0.64019775390625,0.28582763671875,0.69384765625000,moving
182.46,3,1,3,3,-0.6800,-6.0800,-2.1200,-63.6250,63.7500,-64.4375,0.16333007812500,-0.64654541015625,0.27923583984375,0.69085693359375,moving
182.47,3,1,3,3,-4.0200,-5.3500,-1.1500,-56.1250,49.2500,-78.5625,0.16375732421875,-0.65222167968750,0.27209472656250,0.68829345703125,moving
182.48,3,1,3,3,-6.5800,-4.5200,0.4300,-32.1250,43.1875,-81.5000,0.16583251953125,-0.65722656250000,0.26611328125000,0.68536376953125,moving
182.49,3,1,3,3,-7.9900,-3.5500,1.9200,28.4375,32.1250,-67.3125,0.17077636718750,-0.66033935546875,0.26434326171875,0.68182373046875,moving
182.50,3,1,3,3,-8.0400,-3.1600,1.9300,112.3125,48.0000,-51.5625,0.17919921875000,-0.66271972656250,0.26873779296875,0.67565917968750,moving
182.51,3,1,3,3,-5.5300,-4.3700,1.0400,167.8125,55.3125,-54.9375,0.19091796875000,-0.66461181640625,0.27624511718750,0.66754150390625,moving
182.52,3,1,3,3,-3.8000,-4.2800,1.8000,168.6250,34.1250,-65.8750,0.20367431640625,-0.66528320312500,0.28271484375000,0.66027832031250,moving
182.53,3,1,3,3,-3.6800,-3.5900,1.1600,144.7500,33.5000,-75.9375,0.21569824218750,-0.66650390625000,0.28717041015625,0.65332031250000,moving
182.54,3,1,3,3,-3.6800,-3.5900,1.1600,144.7500,33.5000,-75.9375,0.21569824218750,-0.66650390625000,0.28717041015625,0.65332031250000,moving
182.54,3,1,3,3,-3.0900,-1.3800,0.9200,119.0625,32.3125,-84.8750,0.22668457031250,-0.66821289062500,0.28955078125000,0.64678955078125,moving
182.55,3,1,3,3,-2.7100,0.1800,1.2200,97.9375,26.5000,-91.6250,0.23693847656250,-0.67004394531250,0.29016113281250,0.64086914062500,moving
182.56,3,1,3,3,-2.1400,1.5000,1.4900,80.3750,26.0000,-93.5000,0.24621582031250,-0.67218017578125,0.28967285156250,0.63531494140625,moving
182.57,3,1,3,3,-1.5000,2.4000,1.5500,61.9375,28.0000,-93.2500,0.25433349609375,-0.67474365234375,0.28820800781250,0.63006591796875,moving
182.58,3,1,3,3,-0.3600,4.0600,1.3500,43.1250,29.6875,-92.9375,0.26129150390625,-0.67773437500000,0.28570556640625,0.62512207031250,moving
182.59,3,1,3,3,0.0600,5.0100,1.2000,26.6875,34.7500,-90.6875,0.26702880859375,-0.68127441406250,0.28253173828125,0.62023925781250,moving
182.60,3,1,3,3,0.3700,6.1200,1.2400,12.6875,41.5625,-87.6875,0.27148437500000,-0.68542480468750,0.27893066406250,0.61541748046875,moving
182.61,3,1,3,3,0.9100,7.0200,1.6000,3.4375,44.4375,-83.2500,0.27514648437500,-0.68969726562500,0.27514648437500,0.61065673828125,moving
182.62,3,1,3,3,1.7700,7.4500,1.8200,-2.0625,48.7500,-78.9375,0.27807617187500,-0.69427490234375,0.27142333984375,0.60583496093750,moving
182.63,3,1,3,3,2.0400,7.1800,2.3700,-2.0625,50.1875,-76.3750,0.28082275390625,-0.69873046875000,0.26788330078125,0.60095214843750,moving
182.64,3,1,3,3,2.7300,7.0400,2.5700,1.3125,49.3125,-75.1875,0.28369140625000,-0.70300292968750,0.26452636718750,0.59606933593750,moving
182.65,3,1,3,3,2.5400,6.0500,2.5600,7.2500,41.6875,-67.8750,0.28674316406250,-0.70654296875000,0.26171875000000,0.59161376953125,moving
182.66,3,1,3,3,1.8400,4.3300,2.6400,13.5000,23.6250,-59.0625,0.29010009765625,-0.70880126953125,0.25933837890625,0.58837890625000,moving
182.67,3,1,3,3,1.5500,3.9900,2.5200,14.1875,6.4375,-51.9375,0.29351806640625,-0.70989990234375,0.25701904296875,0.58636474609375,moving
182.68,3,1,3,3,1.3200,3.9400,2.0300,0.8125,-10.8750,-47.0625,0.29620361328125,-0.71038818359375,0.25384521484375,0.58581542968750,moving
182.69,3,1,3,3,1.1100,3.7100,1.5400,-25.6250,-30.0625,-45.0000,0.29760742187500,-0.71044921875000,0.24896240234375,0.58709716796875,moving
182.71,3,1,3,3,0.4700,3.2400,0.5100,-54.3750,-42.5000,-45.2500,0.29748535156250,-0.71069335937500,0.24224853515625,0.58972167968750,moving
182.71,3,1,3,3,0.5000,3.1400,0.1800,-75.3125,-53.8125,-44.2500,0.29620361328125,-0.71075439453125,0.23425292968750,0.59350585937500,moving
182.72,3,1,3,3,0.2100,2.6700,-0.0100,-84.8125,-63.4375,-40.9375,0.29437255859375,-0.71044921875000,0.22564697265625,0.59808349609375,moving
182.73,3,1,3,3,-0.8600,0.9800,-0.3800,-79.6875,-70.2500,-36.1875,0.29266357421875,-0.70947265625000,0.21746826171875,0.60308837890625,moving
182.74,3,1,3,3,-1.3200,0.2600,-0.5900,-66.8125,-74.1875,-30.0625,0.29150390625000,-0.70782470703125,0.21014404296875,0.60815429687500,moving
182.75,3,1,3,3,-1.6900,-0.1100,-0.8400,-53.8750,-75.1250,-24.2500,0.29083251953125,-0.70562744140625,0.20385742187500,0.61315917968750,moving
182.76,3,1,3,3,-1.5000,-0.3200,-0.9600,-44.5625,-75.0000,-19.8125,0.29052734375000,-0.70306396484375,0.19836425781250,0.61804199218750,moving
182.77,3,1,3,3,-0.4500,0.4200,-1.3000,-36.0000,-75.0625,-16.0000,0.29046630859375,-0.70013427734375,0.19354248046875,0.62286376953125,moving
182.78,3,1,3,3,0.0300,0.9400,-1.3300,-26.5625,-75.9375,-10.4375,0.29064941406250,-0.69683837890625,0.18951416015625,0.62768554687500,moving
182.79,3,1,3,3,0.3300,1.6800,-1.5300,-16.9375,-76.3750,-6.0625,0.29119873046875,-0.69317626953125,0.18627929687500,0.63244628906250,moving
182.80,3,1,3,3,0.3300,1.6800,-1.5300,-16.9375,-76.3750,-6.0625,0.29119873046875,-0.69317626953125,0.18627929687500,0.63244628906250,moving
182.81,3,1,3,3,0.5200,2.4700,-1.6800,-6.9375,-74.5625,-1.9375,0.29211425781250,-0.68927001953125,0.18389892578125,0.63702392578125,moving
182.81,3,1,3,3,0.6100,3.0300,-1.6200,1.1250,-68.8750,1.3125,0.29321289062500,-0.68536376953125,0.18231201171875,0.64117431640625,moving
182.82,3,1,3,3,0.4100,2.7200,-1.4000,7.2500,-58.0000,3.3750,0.29437255859375,-0.68182373046875,0.18139648437500,0.64459228515625,moving
182.83,3,1,3,3,1.0400,2.2400,-1.4200,10.1250,-41.5625,5.3125,0.29528808593750,-0.67913818359375,0.18127441406250,0.64709472656250,moving
182.84,3,1,3,3,1.0100,1.3300,-1.4400,6.7500,-26.3125,7.6875,0.29565429687500,-0.67736816406250,0.18139648437500,0.64874267578125,moving
182.85,3,1,3,3,1.4000,0.1100,-0.9000,2.2500,-23.1250,9.1250,0.29565429687500,-0.67584228515625,0.18151855468750,0.65032958984375,moving
182.86,3,1,3,3,1.3500,-0.2100,-1.0700,-4.0000,-15.6875,9.8750,0.29510498046875,-0.67486572265625,0.18145751953125,0.65155029296875,moving
182.87,3,1,3,3,1.0900,-0.4400,-0.9600,-5.5625,-6.5625,9.3125,0.29431152343750,-0.67449951171875,0.18151855468750,0.65228271484375,moving
182.88,3,1,3,3,0.7000,-0.2900,-0.6900,-6.5625,-3.3125,7.5000,0.29357910156250,-0.67437744140625,0.18151855468750,0.65277099609375,moving
182.89,3,1,3,3,0.4500,-0.0200,-0.6000,-7.4375,-0.6875,6.0000,0.29278564453125,-0.67443847656250,0.18145751953125,0.65307617187500,moving
182.90,3,1,3,3,0.2900,0.1300,-0.4600,-7.8750,0.6250,5.8125,0.29193115234375,-0.67456054687500,0.18139648437500,0.65332031250000,moving
182.91,3,1,3,3,0.2400,0.1300,-0.3400,-6.2500,0.1250,6.3750,0.29119873046875,-0.67462158203125,0.18139648437500,0.65362548828125,moving
182.92,3,1,3,3,0.0900,-0.1100,-0.2700,-2.5000,-0.6250,7.1875,0.29064941406250,-0.67449951171875,0.18170166015625,0.65386962890625,moving
182.93,3,1,3,3,0.1100,-0.1800,-0.3100,2.1875,-2.6250,8.7500,0.29028320312500,-0.67419433593750,0.18225097656250,0.65423583984375,moving
182.94,3,1,3,3,0.2600,-0.3400,-0.3300,4.5625,-4.4375,9.3750,0.29010009765625,-0.67364501953125,0.18298339843750,0.65466308593750,moving
182.95,3,1,3,3,0.3400,-0.4500,-0.4500,5.6875,-4.6875,9.0000,0.28997802734375,-0.67309570312500,0.18371582031250,0.65502929687500,moving
182.96,3,1,3,3,0.4700,-0.5000,-0.4300,5.6875,-4.5625,8.1875,0.28991699218750,-0.67254638671875,0.18444824218750,0.65545654296875,moving
182.97,3,1,3,3,0.5500,-0.4300,-0.3400,5.1250,-3.8750,7.3125,0.28985595703125,-0.67205810546875,0.18505859375000,0.65576171875000,moving
182.98,3,1,3,3,0.4400,-0.3700,-0.3700,4.7500,-2.8125,6.3750,0.28979492187500,-0.67169189453125,0.18566894531250,0.65600585937500,stop
182.99,3,1,3,3,0.4200,-0.2800,-0.3500,3.8125,-2.0000,5.6875,0.28973388671875,-0.67138671875000,0.18615722656250,0.65625000000000,stop
183.00,3,1,3,3,0.4900,0.2400,0.0300,3.6875,-1.5625,4.9375,0.29492187500000,-0.68646240234375,0.17877197265625,0.64019775390625,stop
183.01,3,1,3,3,0.6000,0.2800,0.0900,3.6875,-0.8125,4.2500,0.29492187500000,-0.68621826171875,0.17926025390625,0.64031982421875,stop
183.02,3,1,3,3,0.5600,0.3600,0.0900,2.3750,0.9375,3.3750,0.29486083984375,-0.68615722656250,0.17962646484375,0.64031982421875,stop
183.03,3,1,3,3,0.5100,0.4400,0.2000,2.2500,2.5625,2.6875,0.29479980468750,-0.68621826171875,0.17999267578125,0.64019775390625,stop
183.04,3,1,3,3,0.2100,0.6300,0.3100,1.8750,4.0625,2.6250,0.29467773437500,-0.68634033203125,0.18035888671875,0.63995361328125,stop
183.05,3,1,3,3,0.0500,0.6100,0.3100,1.6875,5.9375,2.8125,0.29449462890625,-0.68658447265625,0.18078613281250,0.63964843750000,stop
183.06,3,1,3,3,-0.0200,0.6000,0.4100,2.3750,7.2500,3.6250,0.29431152343750,-0.68688964843750,0.18133544921875,0.63928222656250,stop
183.07,3,1,3,3,-0.0500,0.4800,0.4700,4.0000,7.7500,4.8750,0.29418945312500,-0.68713378906250,0.18206787109375,0.63891601562500,stop
183.08,3,1,3,3,0.0000,0.4800,0.5000,5.6875,7.5000,5.8125,0.29406738281250,-0.68731689453125,0.18292236328125,0.63848876953125,stop
183.09,3,1,3,3,0.0100,0.5100,0.5100,6.2500,6.2500,6.5625,0.29394531250000,-0.68737792968750,0.18383789062500,0.63818359375000,stop
183.11,3,1,3,3,0.0600,0.4900,0.5200,5.9375,4.8125,6.6875,0.29382324218750,-0.68737792968750,0.18469238281250,0.63800048828125,stop
183.12,3,1,3,3,0.0700,0.4100,0.4900,5.0625,3.1875,6.5625,0.29357910156250,-0.68695068359375,0.18566894531250,0.63830566406250,stop
183.13,3,1,3,3,0.1700,0.3400,0.4800,4.0000,2.3125,6.3750,0.29339599609375,-0.68652343750000,0.18646240234375,0.63861083984375,stop
183.13,3,1,3,3,0.1800,0.3000,0.4100,2.7500,1.0000,5.6875,0.29315185546875,-0.68609619140625,0.18713378906250,0.63897705078125,stop
183.14,3,1,3,3,0.1700,0.2400,0.4400,2.1250,0.0000,5.1875,0.29290771484375,-0.68566894531250,0.18762207031250,0.63940429687500,stop
183.16,3,1,3,3,0.2500,0.2700,0.3100,1.5000,-0.6250,4.5000,0.28845214843750,-0.68652343750000,0.18347167968750,0.64172363281250,stop
183.16,3,1,3,3,0.2700,0.2400,0.2400,0.0625,-1.5625,3.5625,0.28826904296875,-0.68627929687500,0.18365478515625,0.64202880859375,stop
183.17,3,1,3,3,0.2400,0.2600,0.2200,-1.1875,-1.8125,3.0000,0.28796386718750,-0.68603515625000,0.18377685546875,0.64239501953125,stop
183.18,3,1,3,3,0.2700,0.3600,0.2100,-2.6250,-1.6250,2.6250,0.28765869140625,-0.68585205078125,0.18383789062500,0.64270019531250,stop
183.20,3,1,3,3,0.2600,0.3500,0.1600,-3.2500,-1.3125,2.7500,0.28723144531250,-0.68566894531250,0.18389892578125,0.64306640625000,stop
183.21,3,1,3,3,0.2700,0.3100,0.1600,-2.5625,-0.3750,3.0625,0.28326416015625,-0.68658447265625,0.18023681640625,0.64489746093750,stop
183.21,3,1,3,3,0.2500,0.2200,0.1600,-2.0000,-0.1250,3.4375,0.28289794921875,-0.68652343750000,0.18041992187500,0.64508056640625,stop
183.22,3,1,3,3,0.2700,0.1000,0.1600,-1.1875,0.5000,3.6875,0.28259277343750,-0.68646240234375,0.18060302734375,0.64526367187500,stop
183.23,3,1,3,3,0.2600,0.1000,0.1700,0.0625,0.9375,4.0000,0.28234863281250,-0.68640136718750,0.18090820312500,0.64532470703125,stop
183.24,3,1,3,3,0.2400,0.1100,0.2600,1.1875,2.0000,4.1875,0.28216552734375,-0.68634033203125,0.18127441406250,0.64538574218750,stop
183.26,3,1,3,3,0.1600,0.1300,0.2800,2.1875,2.4375,4.1250,0.27905273437500,-0.68707275390625,0.17858886718750,0.64666748046875,stop
183.27,3,1,3,3,0.1900,0.1700,0.3900,2.1250,3.6875,4.1250,0.27886962890625,-0.68701171875000,0.17907714843750,0.64666748046875,stop
183.28,3,1,3,3,0.2000,0.1500,0.3900,1.5000,4.1250,3.7500,0.27868652343750,-0.68701171875000,0.17950439453125,0.64666748046875,stop
183.29,3,1,3,3,0.1500,0.2100,0.4100,0.8750,4.1250,3.5625,0.27850341796875,-0.68695068359375,0.17987060546875,0.64666748046875,stop
183.29,3,1,3,3,0.1300,0.2800,0.4300,0.2500,3.5000,3.1250,0.27825927734375,-0.68682861328125,0.18023681640625,0.64678955078125,stop
183.31,3,1,3,3,0.1400,0.3800,0.4600,-0.0625,2.8750,2.8125,0.27478027343750,-0.68762207031250,0.17712402343750,0.64831542968750,stop
183.31,3,1,3,3,0.1800,0.3700,0.4400,-1.1250,2.3125,2.6250,0.27447509765625,-0.68743896484375,0.17736816406250,0.64855957031250,stop
183.32,3,1,3,3,0.2100,0.2900,0.4100,-2.3750,1.8125,2.5000,0.27410888671875,-0.68731689453125,0.17749023437500,0.64880371093750,stop
183.33,3,1,3,3,0.2400,0.2600,0.3500,-2.9375,0.3125,2.1250,0.27374267578125,-0.68713378906250,0.17755126953125,0.64916992187500,stop
183.35,3,1,3,3,0.2000,0.2400,0.2900,-3.0625,-1.1250,1.9375,0.27343750000000,-0.68695068359375,0.17755126953125,0.64947509765625,stop
183.36,3,1,3,3,0.1400,0.2100,0.2500,-3.5000,-1.6250,1.2500,0.27038574218750,-0.68750000000000,0.17449951171875,0.65100097656250,stop
183.37,3,1,3,3,0.1700,0.1700,0.2100,-4.1250,-1.8750,1.0000,0.27008056640625,-0.68737792968750,0.17431640625000,0.65130615234375,stop
183.38,3,1,3,3,0.1900,0.1900,0.1700,-4.1875,-1.6250,1.0625,0.26971435546875,-0.68731689453125,0.17413330078125,0.65155029296875,stop
183.38,3,1,3,3,0.3400,0.2000,0.1300,-3.6875,-1.6250,1.1875,0.26947021484375,-0.68719482421875,0.17401123046875,0.65179443359375,stop
183.39,3,1,3,3,0.3500,0.2200,0.1200,-2.8125,-0.8125,1.4375,0.26916503906250,-0.68713378906250,0.17395019531250,0.65197753906250,stop
183.41,3,1,3,3,0.3300,0.2400,0.1600,-1.9375,0.5625,1.2500,0.26733398437500,-0.68756103515625,0.17224121093750,0.65277099609375,stop
183.42,3,1,3,3,0.1300,0.3100,0.2400,-1.6875,2.1875,1.6875,0.26702880859375,-0.68762207031250,0.17236328125000,0.65277099609375,stop
183.43,3,1,3,3,0.1600,0.3200,0.3200,-1.3750,3.7500,1.8125,0.26672363281250,-0.68774414062500,0.17260742187500,0.65277099609375,stop
183.44,3,1,3,3,0.1900,0.3000,0.3500,-1.5000,4.7500,2.0000,0.26635742187500,-0.68786621093750,0.17279052734375,0.65270996093750,stop
183.45,3,1,3,3,0.2000,0.2900,0.4100,-1.1250,5.1250,1.9375,0.26605224609375,-0.68792724609375,0.17303466796875,0.65264892578125,stop
183.46,3,1,3,3,0.1400,0.2400,0.3900,-1.2500,4.2500,1.8750,0.26361083984375,-0.68859863281250,0.17095947265625,0.65356445312500,stop
183.46,3,1,3,3,0.0800,0.2100,0.3400,-1.6875,2.8750,1.6875,0.26330566406250,-0.68853759765625,0.17108154296875,0.65368652343750,stop
183.47,3,1,3,3,0.0300,0.1800,0.3400,-1.8125,1.9375,1.5000,0.26306152343750,-0.68853759765625,0.17114257812500,0.65380859375000,stop
183.47,3,1,3,3,0.0700,0.2100,0.3500,-1.8125,0.9375,1.3750,0.26281738281250,-0.68841552734375,0.17120361328125,0.65399169921875,stop
183.49,3,1,3,3,0.2000,0.2500,0.2800,-2.0000,0.2500,1.0625,0.26257324218750,-0.68829345703125,0.17120361328125,0.65417480468750,stop
183.50,3,1,3,3,0.2200,0.2600,0.2700,-1.8750,-0.5000,1.0625,0.26165771484375,-0.68841552734375,0.17047119140625,0.65466308593750,stop
183.51,3,1,3,3,0.2700,0.2900,0.2200,-1.9375,-1.2500,1.1250,0.26141357421875,-0.68823242187500,0.17047119140625,0.65490722656250,stop
183.52,3,1,3,3,0.2900,0.2700,0.1600,-2.1875,-1.8750,1.0625,0.26123046875000,-0.68804931640625,0.17041015625000,0.65521240234375,stop
183.53,3,1,3,3,0.2400,0.2200,0.1300,-2.1875,-1.3750,0.8750,0.26098632812500,-0.68792724609375,0.17041015625000,0.65545654296875,stop
183.53,3,1,3,3,0.1800,0.1700,0.1000,-1.9375,-0.5000,0.8125,0.26080322265625,-0.68792724609375,0.17034912109375,0.65557861328125,stop
183.55,3,1,3,3,0.1700,0.1200,0.1000,-1.4375,0.1250,0.8750,0.25970458984375,-0.68811035156250,0.16943359375000,0.65600585937500,stop
183.55,3,1,3,3,0.2200,0.0700,0.1400,-1.0000,0.4375,0.6250,0.25958251953125,-0.68811035156250,0.16943359375000,0.65606689453125,stop
183.57,3,1,3,3,0.2300,0.1200,0.1400,-0.8750,0.6250,0.3750,0.25952148437500,-0.68811035156250,0.16937255859375,0.65606689453125,stop
183.58,3,1,3,3,0.2800,0.1700,0.1600,-0.6875,0.8750,0.1250,0.25946044921875,-0.68817138671875,0.16937255859375,0.65606689453125,stop
183.59,3,1,3,3,0.3400,0.2300,0.2000,-0.5000,0.4375,0.0000,0.25946044921875,-0.68811035156250,0.16943359375000,0.65612792968750,stop
183.60,3,1,3,3,0.2500,0.2500,0.1700,-0.3750,0.3125,-0.1875,0.25921630859375,-0.68804931640625,0.16925048828125,0.65631103515625,stop
183.61,3,1,3,3,0.2300,0.2100,0.1700,-0.3750,0.0000,0.0000,0.25921630859375,-0.68798828125000,0.16931152343750,0.65637207031250,stop
183.62,3,1,3,3,0.2400,0.1500,0.1600,-0.6875,0.0000,0.1250,0.25909423828125,-0.68798828125000,0.16931152343750,0.65643310546875,stop
183.62,3,1,3,3,0.2700,0.1600,0.1600,-1.2500,-0.1250,-0.1250,0.25903320312500,-0.68792724609375,0.16925048828125,0.65649414062500,stop
183.64,3,1,3,3,0.1900,0.2500,0.1000,-1.6250,-0.6875,-0.2500,0.25891113281250,-0.68786621093750,0.16918945312500,0.65661621093750,stop
183.65,3,1,3,3,0.1500,0.3000,0.0500,-1.3125,-0.8750,-0.3125,0.25811767578125,-0.68798828125000,0.16845703125000,0.65704345703125,stop
183.66,3,1,3,3,0.1400,0.3500,0.1100,-0.8750,-0.3750,-0.3125,0.25799560546875,-0.68792724609375,0.16851806640625,0.65710449218750,stop
183.67,3,1,3,3,0.1500,0.3300,0.0800,-0.6875,0.4375,0.0000,0.25781250000000,-0.68786621093750,0.16857910156250,0.65722656250000,stop
183.68,3,1,3,3,0.2000,0.3100,0.1200,-0.6875,1.8750,0.3750,0.25762939453125,-0.68792724609375,0.16870117187500,0.65722656250000,stop
183.69,3,1,3,3,0.2000,0.2900,0.1600,-0.6875,2.3125,0.8125,0.25744628906250,-0.68792724609375,0.16888427734375,0.65722656250000,stop
183.70,3,1,3,3,0.2200,0.2400,0.1900,-1.1875,1.7500,0.3750,0.25579833984375,-0.68835449218750,0.16735839843750,0.65777587890625,stop
183.70,3,1,3,3,0.1900,0.2200,0.2000,-1.1875,1.7500,0.3750,0.25567626953125,-0.68841552734375,0.16741943359375,0.65777587890625,stop
183.72,3,1,3,3,0.1800,0.3300,0.1500,-1.2500,1.1250,0.3750,0.25549316406250,-0.68841552734375,0.16748046875000,0.65783691406250,stop
183.73,3,1,3,3,0.1900,0.3500,0.1700,-1.0000,0.4375,0.3750,0.25531005859375,-0.68835449218750,0.16748046875000,0.65802001953125,stop
183.74,3,1,3,3,0.2000,0.3500,0.1700,-0.8125,0.1875,0.6250,0.25512695312500,-0.68823242187500,0.16760253906250,0.65814208984375,stop
183.75,3,1,3,3,0.2200,0.1900,0.1900,-1.1875,1.1250,0.8750,0.25439453125000,-0.68835449218750,0.16711425781250,0.65844726562500,stop
183.76,3,1,3,3,0.1900,0.0900,0.2000,-1.1875,1.1250,0.8750,0.25421142578125,-0.68835449218750,0.16717529296875,0.65850830078125,stop
183.77,3,1,3,3,0.1800,0.0500,0.1800,-1.1250,1.1875,0.8750,0.25402832031250,-0.68841552734375,0.16717529296875,0.65850830078125,stop
183.78,3,1,3,3,0.2000,0.0200,0.1900,-1.2500,0.8750,0.6250,0.25390625000000,-0.68841552734375,0.16717529296875,0.65850830078125,stop
183.79,3,1,3,3,0.2600,0.1300,0.1300,-1.1875,0.3125,0.1875,0.25384521484375,-0.68841552734375,0.16711425781250,0.65863037109375,stop
183.80,3,1,3,3,0.2400,0.1800,0.0700,-0.9375,-0.6875,0.1875,0.25201416015625,-0.68878173828125,0.16522216796875,0.65936279296875,stop
183.81,3,1,3,3,0.2400,0.1900,0.0600,-0.5625,-0.1875,0.1875,0.25195312500000,-0.68878173828125,0.16522216796875,0.65942382812500,stop
183.82,3,1,3,3,0.2900,0.2200,0.0000,-0.2500,0.5000,0.3750,0.25189208984375,-0.68872070312500,0.16522216796875,0.65948486328125,stop
183.83,3,1,3,3,0.2700,0.2200,0.0200,-0.3125,1.4375,0.3750,0.25183105468750,-0.68878173828125,0.16534423828125,0.65942382812500,stop
183.84,3,1,3,3,0.2500,0.1900,0.0500,-0.3125,1.6250,0.1875,0.25177001953125,-0.68884277343750,0.16540527343750,0.65936279296875,stop
183.85,3,1,3,3,0.2400,0.1600,0.0900,-0.1250,2.0625,0.0000,0.25152587890625,-0.68896484375000,0.16528320312500,0.65930175781250,stop
183.86,3,1,3,3,0.2000,0.1500,0.1400,-0.1250,2.3125,0.0000,0.25146484375000,-0.68908691406250,0.16540527343750,0.65917968750000,stop
183.87,3,1,3,3,0.1800,0.1600,0.1500,-0.1250,2.0625,0.0000,0.25146484375000,-0.68914794921875,0.16546630859375,0.65911865234375,stop
183.88,3,1,3,3,0.2000,0.1500,0.1900,-0.3750,2.0625,0.2500,0.25140380859375,-0.68920898437500,0.16552734375000,0.65905761718750,stop
183.89,3,1,3,3,0.2400,0.1700,0.1700,-0.4375,2.2500,0.1250,0.25134277343750,-0.68933105468750,0.16558837890625,0.65899658203125,stop
183.90,3,1,3,3,0.2500,0.2100,0.1200,-0.3125,2.1875,0.5000,0.25122070312500,-0.68939208984375,0.16564941406250,0.65893554687500,stop
183.91,3,1,3,3,0.2900,0.2100,0.1200,-0.5000,1.8125,0.4375,0.25115966796875,-0.68945312500000,0.16571044921875,0.65887451171875,stop
183.92,3,1,3,3,0.2700,0.2000,0.0600,-0.7500,2.0000,0.1875,0.25103759765625,-0.68951416015625,0.16577148437500,0.65881347656250,stop
183.93,3,1,3,3,0.2700,0.1700,0.0700,-0.9375,2.3750,0.1250,0.25091552734375,-0.68969726562500,0.16577148437500,0.65869140625000,stop
183.94,3,1,3,3,0.1800,0.1100,0.0800,-0.6875,2.5625,0.0000,0.25085449218750,-0.68981933593750,0.16583251953125,0.65863037109375,stop
183.95,3,1,3,3,0.1700,0.0700,0.0700,-0.1250,2.9375,0.0000,0.24945068359375,-0.69030761718750,0.16448974609375,0.65893554687500,stop
183.96,3,1,3,3,0.1700,0.0600,0.1300,0.0625,3.2500,-0.1875,0.24938964843750,-0.69042968750000,0.16455078125000,0.65881347656250,stop
183.97,3,1,3,3,0.1700,0.0800,0.1400,0.2500,3.5000,-0.1875,0.24932861328125,-0.69061279296875,0.16467285156250,0.65863037109375,stop
183.98,3,1,3,3,0.2200,0.1100,0.2100,0.2500,3.3750,-0.1875,0.24926757812500,-0.69079589843750,0.16473388671875,0.65844726562500,stop
183.99,3,1,3,3,0.2200,0.0900,0.2300,0.5000,3.0000,-0.2500,0.24920654296875,-0.69091796875000,0.16485595703125,0.65832519531250,stop
184.00,3,1,3,3,0.1900,0.0900,0.2200,0.6250,2.3125,-0.2500,0.24920654296875,-0.69097900390625,0.16491699218750,0.65826416015625,stop
184.01,3,1,3,3,0.1600,0.0800,0.2000,0.3125,1.5625,-0.3750,0.24920654296875,-0.69097900390625,0.16497802734375,0.65820312500000,stop
184.02,3,1,3,3,0.2100,0.0800,0.1400,0.0000,1.3125,-0.5625,0.24920654296875,-0.69104003906250,0.16497802734375,0.65814208984375,stop
184.03,3,1,3,3,0.2400,0.0800,0.1200,0.0000,0.8125,-0.5000,0.24914550781250,-0.69104003906250,0.16497802734375,0.65814208984375,stop
184.04,3,1,3,3,0.2400,0.0700,0.0800,0.1250,0.8750,-0.7500,0.24920654296875,-0.69104003906250,0.16497802734375,0.65814208984375,stop
184.05,3,1,3,3,0.2600,0.0400,0.0200,0.1875,0.6250,-1.0000,0.24920654296875,-0.69110107421875,0.16491699218750,0.65808105468750,stop
184.06,3,1,3,3,0.3000,-0.0500,-0.0200,-0.1250,0.8750,-1.5625,0.24932861328125,-0.69116210937500,0.16479492187500,0.65802001953125,stop
184.07,3,1,3,3,0.2800,-0.0800,-0.0600,-0.4375,1.3125,-2.0000,0.24938964843750,-0.69128417968750,0.16473388671875,0.65789794921875,stop
184.08,3,1,3,3,0.2600,-0.1000,-0.1000,-0.2500,2.3125,-2.1250,0.24951171875000,-0.69146728515625,0.16461181640625,0.65765380859375,stop
184.09,3,1,3,3,0.2900,-0.0100,-0.1100,0.3125,3.3750,-2.1875,0.24957275390625,-0.69165039062500,0.16455078125000,0.65740966796875,stop
184.10,3,1,3,3,0.3100,0.0700,-0.1100,0.6875,4.6875,-2.5625,0.24969482421875,-0.69195556640625,0.16455078125000,0.65704345703125,stop
184.11,3,1,3,3,0.2900,0.1300,-0.0900,1.0000,5.6250,-2.6250,0.24981689453125,-0.69232177734375,0.16461181640625,0.65667724609375,stop
184.12,3,1,3,3,0.3300,0.1400,-0.0400,0.6250,6.8125,-3.0000,0.24993896484375,-0.69274902343750,0.16461181640625,0.65618896484375,stop
184.13,3,1,3,3,0.4400,-0.0600,0.0300,1.1875,8.0000,-3.5000,0.25006103515625,-0.69323730468750,0.16467285156250,0.65557861328125,stop
184.14,3,1,3,3,0.4600,-0.2300,0.0600,2.0625,8.5625,-4.1250,0.25030517578125,-0.69372558593750,0.16467285156250,0.65496826171875,stop
184.15,3,1,3,3,0.4700,-0.3500,0.0500,3.4375,9.0625,-5.2500,0.25067138671875,-0.69427490234375,0.16473388671875,0.65423583984375,stop
184.16,3,1,3,3,0.4400,-0.3700,0.0700,4.6875,9.3750,-6.5000,0.25122070312500,-0.69476318359375,0.16479492187500,0.65350341796875,stop
184.17,3,1,3,3,0.4200,-0.3600,0.0700,4.7500,9.1875,-7.6250,0.25177001953125,-0.69531250000000,0.16479492187500,0.65270996093750,stop
184.18,3,1,3,3,0.4000,-0.2800,0.0300,5.1875,9.2500,-8.5625,0.25244140625000,-0.69586181640625,0.16479492187500,0.65185546875000,stop
184.19,3,1,3,3,0.4200,-0.1600,0.0800,6.2500,9.4375,-9.1875,0.25323486328125,-0.69635009765625,0.16479492187500,0.65100097656250,stop
184.20,3,1,3,3,0.3500,-0.0200,0.0500,8.4375,9.5625,-9.1875,0.25415039062500,-0.69683837890625,0.16491699218750,0.65008544921875,stop
184.21,3,1,3,3,0.2900,0.1300,0.0300,10.4375,10.1875,-9.2500,0.25518798828125,-0.69732666015625,0.16516113281250,0.64910888671875,stop
184.22,3,1,3,3,0.2400,0.2200,0.0600,11.4375,10.6250,-9.1875,0.25622558593750,-0.69775390625000,0.16546630859375,0.64813232421875,stop
184.23,3,1,3,3,0.2500,0.2100,0.0500,12.0625,11.3750,-8.7500,0.25732421875000,-0.69830322265625,0.16589355468750,0.64703369140625,stop
184.24,3,1,3,3,0.1300,0.3200,0.0400,12.8125,11.3750,-8.5000,0.25842285156250,-0.69873046875000,0.16632080078125,0.64599609375000,stop
184.25,3,1,3,3,0.1100,0.4100,0.0300,13.3125,11.0625,-8.5000,0.25939941406250,-0.69921875000000,0.16668701171875,0.64495849609375,stop
184.26,3,1,3,3,0.0800,0.4800,0.0700,13.2500,11.5000,-8.4375,0.26055908203125,-0.69970703125000,0.16717529296875,0.64385986328125,stop
184.27,3,1,3,3,0.0400,0.6500,0.0600,13.0625,13.1250,-8.1250,0.26159667968750,-0.70025634765625,0.16772460937500,0.64270019531250,stop
184.28,3,1,3,3,-0.0800,0.9800,0.0900,12.5000,13.4375,-8.1250,0.26263427734375,-0.70080566406250,0.16827392578125,0.64154052734375,stop
184.29,3,1,3,3,-0.1600,1.2100,0.1100,11.2500,12.8125,-7.9375,0.26354980468750,-0.70141601562500,0.16870117187500,0.64038085937500,stop
184.30,3,1,3,3,-0.2800,1.5900,0.1000,9.9375,11.8125,-7.1250,0.26422119140625,-0.70196533203125,0.16888427734375,0.63946533203125,stop
184.30,3,1,3,3,-0.2800,1.5900,0.1000,9.9375,11.8125,-7.1250,0.26422119140625,-0.70196533203125,0.16888427734375,0.63946533203125,stop
184.31,3,1,3,3,-0.2400,1.8100,0.1100,10.1875,10.3125,-5.8125,0.26501464843750,-0.70239257812500,0.16931152343750,0.63854980468750,stop
184.32,3,1,3,3,-0.1500,2.2100,-0.0700,10.2500,6.8125,-4.3750,0.26580810546875,-0.70263671875000,0.16979980468750,0.63787841796875,stop
184.33,3,1,3,3,-0.1600,2.4900,-0.1500,6.7500,2.1875,-3.4375,0.26635742187500,-0.70263671875000,0.17004394531250,0.63757324218750,stop
184.34,3,1,3,3,-0.1400,2.7700,-0.3500,-0.1250,-1.8125,-2.6875,0.26654052734375,-0.70257568359375,0.16979980468750,0.63763427734375,stop
184.35,3,1,3,3,-0.1300,3.1100,-0.4300,-6.6875,-4.0625,-0.8750,0.26623535156250,-0.70251464843750,0.16931152343750,0.63793945312500,stop
184.36,3,1,3,3,-0.0900,3.8600,-0.6200,-11.4375,-4.5000,3.1875,0.26538085937500,-0.70245361328125,0.16876220703125,0.63848876953125,stop
184.37,3,1,3,3,-0.0100,4.1700,-0.7400,-15.3750,-3.3750,8.9375,0.26397705078125,-0.70245361328125,0.16839599609375,0.63909912109375,stop
184.38,3,1,3,3,0.0100,4.4500,-0.7700,-18.1250,0.7500,15.7500,0.26196289062500,-0.70269775390625,0.16839599609375,0.63970947265625,stop
184.39,3,1,3,3,0.0000,4.6900,-0.8700,-19.2500,4.9375,22.4375,0.25939941406250,-0.70306396484375,0.16882324218750,0.64019775390625,stop
184.40,3,1,3,3,-0.0200,5.0500,-0.8300,-21.1250,7.6250,29.1250,0.25634765625000,-0.70355224609375,0.16961669921875,0.64074707031250,stop
184.41,3,1,3,3,-0.1000,5.1600,-0.7600,-23.8125,10.1875,36.1875,0.25268554687500,-0.70410156250000,0.17071533203125,0.64129638671875,stop
184.42,3,1,3,3,-0.1100,5.0600,-0.6100,-27.5000,12.9375,43.8125,0.24829101562500,-0.70477294921875,0.17218017578125,0.64184570312500,stop
184.43,3,1,3,3,0.0800,4.7400,-0.2500,-29.1250,15.8125,53.1875,0.24322509765625,-0.70544433593750,0.17419433593750,0.64245605468750,stop
184.44,3,1,3,3,0.1000,4.4400,0.0000,-28.3125,18.0625,62.7500,0.23767089843750,-0.70611572265625,0.17687988281250,0.64312744140625,stop
184.45,3,1,3,3,0.2500,3.9700,0.2200,-26.7500,19.5000,70.5625,0.23114013671875,-0.70678710937500,0.17956542968750,0.64404296875000,stop
184.46,3,1,3,3,0.2600,3.6300,0.4100,-28.4375,19.5625,77.1250,0.22467041015625,-0.70727539062500,0.18310546875000,0.64477539062500,stop
184.47,3,1,3,3,-0.0300,3.0900,0.9100,-35.9375,14.3125,81.3125,0.21765136718750,-0.70745849609375,0.18646240234375,0.64605712890625,stop
184.48,3,1,3,3,-0.1300,2.8400,0.8500,-46.6875,12.1875,83.4375,0.20977783203125,-0.70758056640625,0.18920898437500,0.64764404296875,stop
184.49,3,1,3,3,-0.2100,2.6900,0.9400,-55.6875,7.7500,85.6250,0.20135498046875,-0.70764160156250,0.19152832031250,0.64965820312500,stop
184.50,3,1,3,3,-0.2700,2.5300,1.0200,-63.6250,0.6250,88.0000,0.19238281250000,-0.70727539062500,0.19342041015625,0.65222167968750,stop
184.51,3,1,3,3,-0.4300,2.6200,0.9900,-70.8750,-8.5625,90.3750,0.18292236328125,-0.70635986328125,0.19482421875000,0.65545654296875,stop
184.52,3,1,3,3,-0.3400,2.4300,0.9300,-76.2500,-18.3750,92.1875,0.17321777343750,-0.70489501953125,0.19592285156250,0.65930175781250,stop
184.53,3,1,3,3,-0.3800,2.0700,0.8700,-79.6875,-26.5000,94.6250,0.16326904296875,-0.70294189453125,0.19677734375000,0.66369628906250,stop
184.54,3,1,3,3,-0.3800,1.4200,0.8100,-82.1875,-30.8750,97.0000,0.15307617187500,-0.70056152343750,0.19757080078125,0.66839599609375,stop
184.55,3,1,3,3,-0.1500,-1.0400,0.6300,-82.0625,-32.2500,99.0000,0.14282226562500,-0.69799804687500,0.19842529296875,0.67309570312500,stop
184.56,3,1,3,3,-0.1700,-2.0200,0.4500,-82.8125,-36.1250,98.6250,0.13256835937500,-0.69512939453125,0.19915771484375,0.67791748046875,stop
184.57,3,1,3,3,-0.2800,-2.6700,0.0500,-91.3750,-45.0625,95.3125,0.12213134765625,-0.69177246093750,0.19903564453125,0.68328857421875,stop
184.58,3,1,3,3,-0.2800,-2.6700,0.0500,-91.3750,-45.0625,95.3125,0.12213134765625,-0.69177246093750,0.19903564453125,0.68328857421875,stop
184.58,3,1,3,3,0.0000,-3.6500,-0.5600,-100.0000,-56.1250,88.4375,0.11175537109375,-0.68792724609375,0.19787597656250,0.68933105468750,stop
184.59,3,1,3,3,0.3000,-4.0500,-0.8700,-104.2500,-67.3125,81.9375,0.10168457031250,-0.68334960937500,0.19586181640625,0.69592285156250,stop
184.60,3,1,3,3,0.6700,-4.6100,-1.2900,-104.3125,-74.2500,74.1875,0.09313964843750,-0.67816162109375,0.19427490234375,0.70263671875000,stop
184.61,3,1,3,3,1.0100,-5.2400,-1.7900,-94.9375,-76.8125,67.6250,0.08465576171875,-0.67303466796875,0.19183349609375,0.70928955078125,stop
184.62,3,1,3,3,1.0300,-6.4500,-2.5800,-80.6875,-75.1250,61.6875,0.07733154296875,-0.66784667968750,0.18994140625000,0.71545410156250,stop
184.63,3,1,3,3,0.8800,-6.9400,-2.9900,-67.0000,-69.1250,56.7500,0.07098388671875,-0.66302490234375,0.18859863281250,0.72094726562500,stop
184.64,3,1,3,3,0.7900,-7.3000,-3.3600,-56.6875,-58.2500,52.7500,0.06536865234375,-0.65881347656250,0.18768310546875,0.72558593750000,stop
184.65,3,1,3,3,0.6700,-7.4500,-3.6900,-47.4375,-41.5000,45.8750,0.06036376953125,-0.65570068359375,0.18713378906250,0.72900390625000,stop
184.66,3,1,3,3,-0.1200,-7.8000,-4.2600,-35.7500,-24.0000,39.6250,0.05621337890625,-0.65368652343750,0.18701171875000,0.73114013671875,stop
184.67,3,1,3,3,-0.6000,-7.1400,-4.2200,-23.1875,-3.9375,33.8750,0.05279541015625,-0.65301513671875,0.18743896484375,0.73193359375000,stop
184.68,3,1,3,3,-0.9000,-6.3900,-4.0700,-18.0625,18.1250,27.2500,0.04968261718750,-0.65380859375000,0.18786621093750,0.73132324218750,stop
184.69,3,1,3,3,-0.9400,-5.8000,-3.3500,-12.4375,39.3750,21.6875,0.04699707031250,-0.65600585937500,0.18847656250000,0.72930908203125,stop
184.70,3,1,3,3,-1.2600,-5.5300,-1.7000,7.5000,56.1875,18.3750,0.04534912109375,-0.65924072265625,0.19024658203125,0.72607421875000,stop
184.71,3,1,3,3,-1.4500,-5.8200,-0.8700,43.8750,60.0000,16.4375,0.04583740234375,-0.66259765625000,0.19421386718750,0.72192382812500,stop
184.72,3,1,3,3,-1.7400,-5.9600,0.2400,73.9375,57.3125,13.0000,0.04833984375000,-0.66571044921875,0.19982910156250,0.71734619140625,stop
184.73,3,1,3,3,-1.9700,-6.1000,0.9900,95.7500,56.0625,7.6250,0.05242919921875,-0.66864013671875,0.20642089843750,0.71240234375000,stop
184.74,3,1,3,3,-2.8100,-5.7700,2.3400,113.5625,45.0000,3.0625,0.05810546875000,-0.67083740234375,0.21386718750000,0.70770263671875,stop
184.75,3,1,3,3,-3.1600,-5.5900,2.7800,121.8750,29.4375,-3.8750,0.06494140625000,-0.67211914062500,0.22125244140625,0.70361328125000,stop
184.76,3,1,3,3,-3.0300,-5.3400,2.7600,117.3125,14.2500,-15.3750,0.07250976562500,-0.67260742187500,0.22760009765625,0.70037841796875,stop
184.77,3,1,3,3,-1.6400,-6.0500,1.5700,99.3750,8.0000,-32.5000,0.08020019531250,-0.67309570312500,0.23175048828125,0.69769287109375,stop
184.78,3,1,3,3,-0.8600,-6.1700,0.5700,80.2500,2.0625,-47.6250,0.08782958984375,-0.67358398437500,0.23382568359375,0.69561767578125,stop
184.79,3,1,3,3,-0.4400,-6.1200,-0.2300,69.5000,-8.0000,-61.3125,0.09588623046875,-0.67382812500000,0.23431396484375,0.69415283203125,stop
184.80,3,1,3,3,-0.1000,-5.7500,-0.8300,67.7500,-13.8750,-73.7500,0.10461425781250,-0.67388916015625,0.23388671875000,0.69293212890625,stop
184.81,3,1,3,3,0.4000,-5.1100,-1.8700,72.2500,-16.8750,-85.6250,0.11444091796875,-0.67395019531250,0.23303222656250,0.69165039062500,stop
184.82,3,1,3,3,0.8400,-4.6000,-2.3100,82.3125,-18.8750,-96.0000,0.12554931640625,-0.67395019531250,0.23211669921875,0.69006347656250,stop
184.83,3,1,3,3,1.1500,-4.2100,-2.5200,91.0000,-16.1875,-104.3750,0.13751220703125,-0.67401123046875,0.23120117187500,0.68798828125000,stop
184.84,3,1,3,3,1.1500,-4.2100,-2.5200,91.0000,-16.1875,-104.3750,0.13751220703125,-0.67401123046875,0.23120117187500,0.68798828125000,stop
184.84,3,1,3,3,1.4300,-3.5200,-2.7700,95.4375,-3.8750,-111.2500,0.14996337890625,-0.67486572265625,0.23022460937500,0.68487548828125,stop
184.85,3,1,3,3,1.9100,-2.2500,-3.2700,95.0625,8.9375,-117.0625,0.16241455078125,-0.67645263671875,0.22906494140625,0.68084716796875,stop
184.86,3,1,3,3,1.8600,-1.2400,-3.4400,91.3125,19.0625,-120.8750,0.17462158203125,-0.67871093750000,0.22753906250000,0.67608642578125,stop
184.87,3,1,3,3,1.6500,-0.3500,-3.2700,83.8125,27.9375,-123.5625,0.18640136718750,-0.68145751953125,0.22552490234375,0.67077636718750,stop
184.88,3,1,3,3,1.4400,0.7400,-3.1100,77.6250,38.6250,-123.5625,0.19750976562500,-0.68487548828125,0.22326660156250,0.66491699218750,stop
184.89,3,1,3,3,0.3500,2.7200,-2.5500,69.4375,46.2500,-120.1875,0.20776367187500,-0.68865966796875,0.22088623046875,0.65863037109375,stop
184.90,3,1,3,3,-0.1600,3.7800,-2.0400,70.5625,52.6250,-116.6875,0.21777343750000,-0.69262695312500,0.21881103515625,0.65191650390625,stop
184.91,3,1,3,3,-0.7300,4.8600,-1.4800,82.7500,54.6875,-109.6250,0.22796630859375,-0.69622802734375,0.21783447265625,0.64483642578125,stop
184.92,3,1,3,3,-2.0700,6.7800,-0.2900,92.8750,54.1875,-100.4375,0.23822021484375,-0.69927978515625,0.21801757812500,0.63775634765625,stop
184.93,3,1,3,3,-2.6100,8.0400,-0.2200,98.8750,53.5000,-88.1250,0.24816894531250,-0.70184326171875,0.21917724609375,0.63067626953125,stop
184.94,3,1,3,3,-3.2500,8.5100,0.7200,105.4375,42.8750,-75.3750,0.25799560546875,-0.70336914062500,0.22125244140625,0.62432861328125,stop
184.95,3,1,3,3,-3.3500,8.9300,1.3800,108.2500,35.8125,-64.0625,0.26745605468750,-0.70404052734375,0.22399902343750,0.61853027343750,stop
184.96,3,1,3,3,-2.5600,9.3900,2.3500,108.0625,22.2500,-55.8750,0.27667236328125,-0.70379638671875,0.22686767578125,0.61370849609375,stop
184.97,3,1,3,3,-2.2500,9.6700,3.2500,95.5625,10.1875,-50.1875,0.28503417968750,-0.70300292968750,0.22912597656250,0.60992431640625,stop
184.99,3,1,3,3,-1.8200,9.1900,3.4200,69.5625,22.6875,-48.7500,0.29144287109375,-0.70343017578125,0.23034667968750,0.60595703125000,moving
185.00,3,1,3,3,-1.6600,7.9700,2.6600,45.2500,33.6250,-45.2500,0.29589843750000,-0.70495605468750,0.23083496093750,0.60180664062500,moving
185.01,3,1,3,3,-1.9500,6.1600,2.3500,35.3750,27.8125,-35.3125,0.29937744140625,-0.70623779296875,0.23126220703125,0.59844970703125,moving
185.02,3,1,3,3,-2.0200,6.2700,2.3500,27.1250,18.5000,-25.5000,0.30200195312500,-0.70697021484375,0.23156738281250,0.59613037109375,moving
185.03,3,1,3,3,-2.0600,6.1100,2.1200,7.9375,12.6875,-19.8750,0.30328369140625,-0.70782470703125,0.23107910156250,0.59466552734375,moving
185.04,3,1,3,3,-2.3700,6.0800,1.9100,-17.3125,11.1875,-15.5625,0.30273437500000,-0.70916748046875,0.22955322265625,0.59393310546875,moving
185.05,3,1,3,3,-2.9000,6.7400,0.9700,-46.3125,8.8125,-10.6875,0.30023193359375,-0.71105957031250,0.22674560546875,0.59405517578125,moving
185.06,3,1,3,3,-2.8800,7.2500,0.6200,-68.3750,-3.0625,-4.8125,0.29632568359375,-0.71270751953125,0.22283935546875,0.59545898437500,moving
185.07,3,1,3,3,-2.9100,7.5600,0.4100,-79.8125,-20.2500,3.5625,0.29150390625000,-0.71362304687500,0.21838378906250,0.59838867187500,moving
185.08,3,1,3,3,-2.8900,7.9200,0.0800,-83.1250,-32.1250,15.1875,0.28613281250000,-0.71374511718750,0.21423339843750,0.60235595703125,moving
185.09,3,1,3,3,-2.6600,7.8200,-0.0600,-83.6250,-34.8125,28.6875,0.28002929687500,-0.71337890625000,0.21075439453125,0.60681152343750,moving
185.10,3,1,3,3,-2.3400,7.3800,-0.1600,-81.0000,-30.7500,42.7500,0.27325439453125,-0.71289062500000,0.20843505859375,0.61126708984375,moving
185.11,3,1,3,3,-2.1800,6.9000,-0.2100,-74.0000,-27.4375,57.3750,0.26599121093750,-0.71209716796875,0.20739746093750,0.61572265625000,moving
185.11,3,1,3,3,-2.1800,6.9000,-0.2100,-74.0000,-27.4375,57.3750,0.26599121093750,-0.71209716796875,0.20739746093750,0.61572265625000,moving
185.12,3,1,3,3,-2.4000,6.1500,-0.0100,-68.5000,-28.2500,71.0000,0.25842285156250,-0.71087646484375,0.20751953125000,0.62036132812500,moving
185.13,3,1,3,3,-2.4400,5.4700,0.0800,-69.8125,-29.6250,82.3750,0.25006103515625,-0.70928955078125,0.20825195312500,0.62536621093750,moving
185.14,3,1,3,3,-2.1300,4.9400,0.1500,-73.3125,-33.5000,91.1250,0.24108886718750,-0.70727539062500,0.20916748046875,0.63073730468750,moving
185.15,3,1,3,3,-1.7000,4.4200,0.3300,-77.7500,-40.1875,97.8125,0.23156738281250,-0.70483398437500,0.21014404296875,0.63671875000000,moving
185.16,3,1,3,3,-1.0900,3.3900,0.3200,-86.0000,-47.9375,102.6250,0.22143554687500,-0.70196533203125,0.21069335937500,0.64331054687500,moving
185.17,3,1,3,3,-0.9900,2.6300,0.1800,-95.2500,-55.1875,106.4375,0.21057128906250,-0.69866943359375,0.21087646484375,0.65045166015625,moving
185.18,3,1,3,3,-0.9700,1.7500,-0.0200,-100.3750,-59.9375,109.5000,0.19921875000000,-0.69500732421875,0.21075439453125,0.65795898437500,moving
185.19,3,1,3,3,-0.8400,0.7500,-0.1300,-101.5625,-61.6875,110.0000,0.18780517578125,-0.69110107421875,0.21057128906250,0.66540527343750,moving
185.20,3,1,3,3,-0.2900,-1.1900,-0.0200,-101.5000,-64.0000,109.3750,0.17645263671875,-0.68688964843750,0.21026611328125,0.67291259765625,moving
185.21,3,1,3,3,0.0000,-2.1400,-0.1700,-103.3125,-68.3750,105.2500,0.16528320312500,-0.68243408203125,0.20947265625000,0.68048095703125,moving
185.22,3,1,3,3,0.0600,-2.9300,-0.3000,-107.9375,-73.1250,99.8750,0.15417480468750,-0.67773437500000,0.20800781250000,0.68823242187500,moving
185.23,3,1,3,3,0.3500,-3.8700,-0.6400,-110.6875,-75.4375,92.8750,0.14337158203125,-0.67291259765625,0.20587158203125,0.69592285156250,moving
185.24,3,1,3,3,0.8300,-6.1300,-0.7100,-102.6875,-76.9375,85.8750,0.13342285156250,-0.66784667968750,0.20373535156250,0.70330810546875,moving
185.25,3,1,3,3,1.3200,-6.8900,-1.4500,-83.6250,-76.3750,83.6875,0.12475585937500,-0.66259765625000,0.20257568359375,0.71020507812500,moving
185.26,3,1,3,3,1.5300,-7.5300,-2.1700,-64.8125,-82.8125,78.5625,0.11755371093750,-0.65667724609375,0.20220947265625,0.71697998046875,moving
185.27,3,1,3,3,1.4900,-8.3300,-3.6100,-56.3750,-90.3750,66.6875,0.11169433593750,-0.65039062500000,0.20159912109375,0.72381591796875,moving
185.28,3,1,3,3,1.3800,-9.0500,-4.2400,-57.0625,-80.6250,50.3750,0.10668945312500,-0.64489746093750,0.20007324218750,0.72985839843750,moving
185.29,3,1,3,3,2.0000,-10.4100,-3.6900,-50.2500,-24.5625,38.6250,0.10180664062500,-0.64306640625000,0.19885253906250,0.73248291015625,moving
185.30,3,1,3,3,2.7100,-10.0900,-7.2100,-12.1875,20.5625,34.0000,0.09857177734375,-0.64392089843750,0.20019531250000,0.73187255859375,moving
185.31,3,1,3,3,2.9200,-10.7100,-7.8300,60.2500,17.3750,33.1250,0.09954833984375,-0.64392089843750,0.20605468750000,0.73010253906250,moving
185.32,3,1,3,3,2.7800,-9.7400,-7.5700,129.5000,11.0625,35.0000,0.10437011718750,-0.64282226562500,0.21630859375000,0.72741699218750,moving
185.33,3,1,3,3,2.0000,-8.1900,-7.1000,159.5000,17.0000,26.6875,0.11126708984375,-0.64184570312500,0.22808837890625,0.72363281250000,moving
185.34,3,1,3,3,1.7300,-7.1300,-5.9400,135.3125,33.5625,12.5000,0.11743164062500,-0.64239501953125,0.23760986328125,0.71911621093750,moving
185.35,3,1,3,3,1.2500,-6.4200,-4.7200,78.5625,57.0000,-4.9375,0.12097167968750,-0.64526367187500,0.24285888671875,0.71417236328125,moving
185.36,3,1,3,3,1.5600,-6.4800,-4.0000,23.1875,70.1250,-25.6250,0.12237548828125,-0.64990234375000,0.24353027343750,0.70941162109375,moving
185.37,3,1,3,3,1.5600,-6.4800,-4.0000,23.1875,70.1250,-25.6250,0.12237548828125,-0.64990234375000,0.24353027343750,0.70941162109375,moving
185.37,3,1,3,3,1.7000,-6.2800,-3.2300,-5.2500,85.4375,-41.3125,0.12286376953125,-0.65612792968750,0.24176025390625,0.70422363281250,moving
185.38,3,1,3,3,1.5000,-6.0900,-2.6800,-8.6875,95.6250,-52.6875,0.12359619140625,-0.66320800781250,0.23919677734375,0.69830322265625,moving
185.39,3,1,3,3,-0.1400,-5.2300,-0.5400,12.8750,87.3125,-59.5625,0.12615966796875,-0.66967773437500,0.23742675781250,0.69226074218750,moving
185.40,3,1,3,3,-1.0700,-4.5500,0.9600,57.4375,70.0000,-59.0625,0.13165283203125,-0.67449951171875,0.23822021484375,0.68627929687500,moving
185.41,3,1,3,3,-1.9500,-3.8800,1.8900,129.8750,36.6875,-52.1875,0.14172363281250,-0.67626953125000,0.24328613281250,0.68078613281250,moving
185.42,3,1,3,3,-1.4900,-2.7900,3.2400,207.5625,-0.6875,-46.0625,0.15667724609375,-0.67449951171875,0.25280761718750,0.67565917968750,moving
185.43,3,1,3,3,-0.8800,-2.1600,4.1700,229.3125,-20.3125,-53.7500,0.17382812500000,-0.67126464843750,0.26275634765625,0.67089843750000,moving
185.44,3,1,3,3,-0.3900,-2.3700,4.8500,189.7500,-10.8125,-77.4375,0.18969726562500,-0.66943359375000,0.26910400390625,0.66589355468750,moving
185.45,3,1,3,3,0.0500,-3.1500,4.2200,133.2500,15.7500,-99.6250,0.20294189453125,-0.67041015625000,0.27117919921875,0.66015625000000,moving
185.46,3,1,3,3,-0.1800,-2.8500,1.3400,98.1250,24.3750,-115.8750,0.21478271484375,-0.67279052734375,0.27044677734375,0.65423583984375,moving
185.47,3,1,3,3,-0.4000,-2.0500,1.4000,75.1875,-2.0625,-127.5625,0.22656250000000,-0.67425537109375,0.26715087890625,0.65014648437500,moving
185.48,3,1,3,3,-0.9200,-0.8900,0.8800,46.1250,-19.7500,-135.8750,0.23748779296875,-0.67535400390625,0.26129150390625,0.64746093750000,moving
185.49,3,1,3,3,-1.1200,0.3600,0.7700,16.3750,-27.5000,-139.4375,0.24700927734375,-0.67657470703125,0.25341796875000,0.64575195312500,moving
185.50,3,1,3,3,-1.7400,2.1200,0.0000,-6.5625,-23.5625,-141.0000,0.25506591796875,-0.67846679687500,0.24414062500000,0.64422607421875,moving
185.51,3,1,3,3,-2.0500,3.4000,-0.2000,-12.0625,-14.0000,-135.5625,0.26232910156250,-0.68078613281250,0.23504638671875,0.64221191406250,moving
185.52,3,1,3,3,-2.7300,4.4500,-0.3600,-8.0000,1.9375,-125.1875,0.26885986328125,-0.68359375000000,0.22717285156250,0.63934326171875,moving
185.53,3,1,3,3,-2.5500,5.7300,-0.5300,0.1250,19.6875,-112.1875,0.27471923828125,-0.68688964843750,0.22088623046875,0.63549804687500,moving
