timestamp,calib_mag,calib_accel,calib_gyro,calib_sys,lacc_x,lacc_y,lacc_z,gyro_x,gyro_y,gyro_z,quat_w,quat_x,quat_y,quat_z,label
195.74,3,0,3,3,-0.2700,1.2500,0.3200,6.0000,14.8750,-8.6875,0.13525390625000,0.70538330078125,0.16210937500000,-0.67669677734375,moving
195.75,3,0,3,3,-0.3500,1.5000,0.6100,12.1250,19.0625,-5.4375,0.13391113281250,0.70654296875000,0.16192626953125,-0.67572021484375,moving
195.76,3,0,3,3,-0.2900,1.7000,0.8400,17.3125,21.6250,-1.3750,0.13244628906250,0.70800781250000,0.16125488281250,-0.67468261718750,moving
195.77,3,0,3,3,-0.3100,1.9600,0.8700,21.1250,20.1875,2.0000,0.13098144531250,0.70947265625000,0.16009521484375,-0.67370605468750,moving
195.78,3,0,3,3,-0.2300,2.3000,0.8500,22.2500,9.7500,4.7500,0.12976074218750,0.71038818359375,0.15863037109375,-0.67333984375000,moving
195.79,3,0,3,3,-0.4000,2.4600,0.5900,18.8750,-7.8750,4.0625,0.12890625000000,0.71020507812500,0.15716552734375,-0.67401123046875,moving
195.80,3,0,3,3,-0.5200,2.7400,0.1700,7.5000,-24.8125,2.2500,0.12896728515625,0.70886230468750,0.15631103515625,-0.67565917968750,moving
195.81,3,0,3,3,-0.4700,3.1000,-0.1300,-6.0625,-34.8125,1.4375,0.12988281250000,0.70672607421875,0.15612792968750,-0.67767333984375,moving
195.82,3,0,3,3,-0.3100,3.8300,-0.6200,-15.5000,-38.6250,3.6875,0.13159179687500,0.70434570312500,0.15637207031250,-0.67980957031250,moving
195.83,3,0,3,3,-0.2100,4.1600,-0.8600,-20.6250,-40.2500,8.7500,0.13397216796875,0.70178222656250,0.15661621093750,-0.68188476562500,moving
195.84,3,0,3,3,-0.0900,4.3200,-1.0500,-21.8125,-39.8125,16.5625,0.13684082031250,0.69940185546875,0.15637207031250,-0.68383789062500,moving
195.85,3,0,3,3,0.2000,4.3100,-1.0400,-16.6875,-36.6875,27.5625,0.14001464843750,0.69738769531250,0.15527343750000,-0.68554687500000,moving
195.86,3,0,3,3,1.1900,3.9100,-0.7800,-6.0625,-34.8750,41.8750,0.14337158203125,0.69580078125000,0.15264892578125,-0.68701171875000,moving
195.87,3,0,3,3,1.7500,3.5100,-0.5300,2.2500,-36.8750,55.6875,0.14709472656250,0.69433593750000,0.14862060546875,-0.68859863281250,moving
195.88,3,0,3,3,2.2200,3.0800,-0.4000,5.0000,-35.1250,68.3750,0.15136718750000,0.69317626953125,0.14367675781250,-0.68988037109375,moving
195.89,3,0,3,3,2.8100,2.0100,-0.0900,7.7500,-25.5000,79.0000,0.15600585937500,0.69268798828125,0.13806152343750,-0.69042968750000,moving
195.90,3,0,3,3,2.7600,1.4600,0.1200,15.7500,-16.2500,87.8750,0.16058349609375,0.69299316406250,0.13159179687500,-0.69042968750000,moving
195.91,3,0,3,3,2.7900,0.8500,0.3800,23.2500,-9.9375,95.1875,0.16503906250000,0.69378662109375,0.12426757812500,-0.68988037109375,moving
195.92,3,0,3,3,2.6300,0.0000,0.4700,20.2500,-1.5625,95.4375,0.16961669921875,0.69500732421875,0.11718750000000,-0.68884277343750,moving
195.93,3,0,3,3,1.5400,-1.7100,0.0000,5.5625,8.1250,88.5000,0.17449951171875,0.69647216796875,0.11157226562500,-0.68701171875000,moving
195.94,3,0,3,3,1.5400,-1.7100,0.0000,5.5625,8.1250,88.5000,0.17449951171875,0.69647216796875,0.11157226562500,-0.68701171875000,moving
195.94,3,0,3,3,1.0400,-2.7300,0.0800,-10.9375,8.1250,77.3750,0.17974853515625,0.69750976562500,0.10766601562500,-0.68524169921875,moving
195.95,3,0,3,3,0.6700,-3.6400,-0.2100,-29.3750,-0.3125,64.3750,0.18542480468750,0.69769287109375,0.10546875000000,-0.68389892578125,moving
195.96,3,0,3,3,0.6400,-4.6500,-0.1800,-37.8125,-2.1875,54.2500,0.19097900390625,0.69744873046875,0.10437011718750,-0.68280029296875,moving
195.97,3,0,3,3,1.0100,-6.6500,-0.9500,-35.5000,-2.2500,48.0625,0.19604492187500,0.69714355468750,0.10345458984375,-0.68182373046875,moving
195.98,3,0,3,3,1.1700,-7.2300,-1.2400,-26.5000,-5.8750,40.1875,0.20013427734375,0.69665527343750,0.10247802734375,-0.68121337890625,moving
195.99,3,0,3,3,1.1900,-7.8000,-2.1600,-17.8125,-12.5625,27.8125,0.20300292968750,0.69586181640625,0.10162353515625,-0.68133544921875,moving
196.00,3,0,3,3,0.8800,-8.0400,-1.8900,-12.9375,-23.1250,13.8750,0.20477294921875,0.69439697265625,0.10113525390625,-0.68237304687500,moving
196.01,3,0,3,3,0.2100,-7.3400,-2.3600,-17.6250,-16.8750,-0.5000,0.20599365234375,0.69305419921875,0.10192871093750,-0.68322753906250,moving
196.02,3,0,3,3,0.0100,-6.4700,-2.3300,-26.5625,-7.8750,-11.5625,0.20697021484375,0.69201660156250,0.10406494140625,-0.68371582031250,moving
196.03,3,0,3,3,0.0100,-5.5300,-2.2300,-31.6250,-1.5000,-22.4375,0.20758056640625,0.69116210937500,0.10729980468750,-0.68389892578125,moving
196.04,3,0,3,3,-0.0900,-4.2700,-1.9100,-28.2500,9.3125,-30.2500,0.20733642578125,0.69091796875000,0.11096191406250,-0.68359375000000,moving
196.05,3,0,3,3,-0.4500,-4.2000,-1.4100,-15.4375,26.1875,-34.5000,0.20593261718750,0.69189453125000,0.11444091796875,-0.68249511718750,moving
196.06,3,0,3,3,-0.6400,-4.1500,-1.0700,5.2500,40.2500,-37.5000,0.20294189453125,0.69396972656250,0.11718750000000,-0.68078613281250,moving
196.07,3,0,3,3,-0.5600,-4.3100,-0.7300,21.1875,46.5000,-42.3125,0.19866943359375,0.69671630859375,0.11932373046875,-0.67889404296875,moving
196.08,3,0,3,3,-0.0300,-4.1200,0.2600,21.2500,44.7500,-51.1875,0.19384765625000,0.69915771484375,0.12194824218750,-0.67724609375000,moving
196.09,3,0,3,3,-0.2300,-3.7600,0.6900,20.0000,38.6875,-58.9375,0.18865966796875,0.70117187500000,0.12506103515625,-0.67608642578125,moving
196.10,3,0,3,3,-0.1400,-2.8100,1.3300,25.9375,28.5625,-63.9375,0.18298339843750,0.70257568359375,0.12792968750000,-0.67565917968750,moving
196.11,3,0,3,3,-0.4900,-1.6900,1.3900,34.2500,22.5000,-68.7500,0.17651367187500,0.70367431640625,0.13055419921875,-0.67578125000000,moving
196.12,3,0,3,3,-1.2100,0.3800,1.2600,38.8750,20.6875,-72.1250,0.16961669921875,0.70465087890625,0.13299560546875,-0.67602539062500,moving
196.13,3,0,3,3,-1.3300,1.7300,1.0600,44.1875,10.6875,-71.0625,0.16253662109375,0.70507812500000,0.13494873046875,-0.67687988281250,moving
196.14,3,0,3,3,-1.5100,3.1800,1.0900,46.8125,-6.8750,-68.1875,0.15570068359375,0.70452880859375,0.13635253906250,-0.67883300781250,moving
196.15,3,0,3,3,-1.7100,4.7600,1.1600,51.8750,-26.5625,-61.9375,0.14910888671875,0.70288085937500,0.13671875000000,-0.68188476562500,moving
196.16,3,0,3,3,-1.8900,7.4400,1.5000,49.0625,-30.5000,-49.4375,0.14349365234375,0.70111083984375,0.13647460937500,-0.68499755859375,moving
196.17,3,0,3,3,-1.9600,8.3900,1.4100,35.3125,-15.0000,-36.8125,0.13928222656250,0.70019531250000,0.13641357421875,-0.68676757812500,moving
196.18,3,0,3,3,-2.4100,9.0600,0.8300,21.0000,13.3750,-28.6250,0.13610839843750,0.70092773437500,0.13708496093750,-0.68658447265625,moving
196.19,3,0,3,3,-2.8600,9.1500,0.6600,15.6250,39.0000,-25.7500,0.13311767578125,0.70312500000000,0.13818359375000,-0.68469238281250,moving
196.20,3,0,3,3,-1.8200,6.6100,2.3200,23.8125,29.8125,-26.7500,0.12969970703125,0.70489501953125,0.13879394531250,-0.68341064453125,moving
196.21,3,0,3,3,-1.5500,5.2600,3.2500,43.3125,12.1250,-17.3125,0.12585449218750,0.70587158203125,0.13739013671875,-0.68341064453125,moving
196.22,3,0,3,3,-2.1200,5.0800,3.7400,49.9375,5.8125,5.3750,0.12304687500000,0.70684814453125,0.13415527343750,-0.68359375000000,moving
196.23,3,0,3,3,-2.1200,5.0800,3.7400,49.9375,5.8125,5.3750,0.12304687500000,0.70684814453125,0.13415527343750,-0.68359375000000,moving
196.23,3,0,3,3,-3.2700,4.4600,2.4700,38.5625,13.7500,24.8125,0.12200927734375,0.70831298828125,0.13043212890625,-0.68292236328125,moving
196.24,3,0,3,3,-3.0500,4.2200,1.7600,17.8750,20.3750,39.3750,0.12304687500000,0.71020507812500,0.12713623046875,-0.68139648437500,moving
196.25,3,0,3,3,-2.4400,3.7300,1.4200,4.1250,4.3125,54.1875,0.12597656250000,0.71105957031250,0.12353515625000,-0.68060302734375,moving
196.26,3,0,3,3,-1.8900,3.2900,1.2400,3.5000,-25.8750,68.0625,0.13006591796875,0.71026611328125,0.11883544921875,-0.68151855468750,moving
196.27,3,0,3,3,0.2100,2.3700,1.4700,2.5000,-58.3750,78.4375,0.13525390625000,0.70764160156250,0.11309814453125,-0.68426513671875,moving
196.28,3,0,3,3,0.8300,2.1300,1.1700,-5.3750,-77.8125,82.2500,0.14123535156250,0.70367431640625,0.10742187500000,-0.68798828125000,moving
196.29,3,0,3,3,0.8400,1.5500,0.5100,-17.5625,-61.3125,80.1250,0.14776611328125,0.70050048828125,0.10278320312500,-0.69061279296875,moving
196.30,3,0,3,3,0.7500,0.8400,-0.0700,-29.1875,-37.2500,74.9375,0.15441894531250,0.69854736328125,0.09942626953125,-0.69158935546875,moving
196.31,3,0,3,3,0.6400,-0.0600,-0.5600,-27.6875,-25.5000,71.8125,0.16064453125000,0.69720458984375,0.09637451171875,-0.69195556640625,moving
196.32,3,0,3,3,0.7500,-0.8400,-0.6700,-21.3750,-26.2500,67.5625,0.16625976562500,0.69586181640625,0.09313964843750,-0.69244384765625,moving
196.33,3,0,3,3,0.6700,-2.2100,-0.7000,-28.2500,-32.0000,57.0625,0.17175292968750,0.69396972656250,0.09088134765625,-0.69329833984375,moving
196.34,3,0,3,3,0.2700,-4.0500,-1.1400,-34.0625,-22.3125,48.0625,0.17687988281250,0.69244384765625,0.08966064453125,-0.69366455078125,moving
196.35,3,0,3,3,-0.4700,-6.6800,-1.1300,-15.3750,-12.3750,45.6250,0.18072509765625,0.69183349609375,0.08764648437500,-0.69354248046875,moving
196.36,3,0,3,3,-0.6100,-7.3900,-1.1600,16.8750,-27.8750,45.5000,0.18267822265625,0.69073486328125,0.08343505859375,-0.69464111328125,moving
196.37,3,0,3,3,-0.3600,-7.7800,-1.5100,27.1250,-49.6250,39.4375,0.18377685546875,0.68841552734375,0.07861328125000,-0.69720458984375,moving
196.38,3,0,3,3,0.7000,-8.8000,-3.1000,9.6250,-52.2500,26.1250,0.18518066406250,0.68554687500000,0.07556152343750,-0.70001220703125,moving
196.39,3,0,3,3,0.6200,-9.3200,-3.9700,-13.8750,-25.7500,8.6250,0.18670654296875,0.68383789062500,0.07550048828125,-0.70129394531250,moving
196.40,3,0,3,3,0.3800,-8.4100,-4.2700,-19.0000,4.3750,-5.1250,0.18750000000000,0.68371582031250,0.07708740234375,-0.70098876953125,moving
196.41,3,0,3,3,0.1600,-6.5600,-3.7000,-8.2500,10.0625,-11.6250,0.18719482421875,0.68414306640625,0.07843017578125,-0.70056152343750,moving
196.42,3,0,3,3,-0.0500,-3.9000,-3.3700,-14.1875,1.9375,-23.7500,0.18652343750000,0.68383789062500,0.08081054687500,-0.70074462890625,moving
196.43,3,0,3,3,-0.6100,-3.6900,-3.4600,-32.6250,18.8125,-38.1250,0.18603515625000,0.68420410156250,0.08538818359375,-0.69995117187500,moving
196.44,3,0,3,3,-0.9600,-4.3200,-3.1400,-37.3125,47.1250,-49.3750,0.18481445312500,0.68609619140625,0.09136962890625,-0.69769287109375,moving
196.45,3,0,3,3,-0.9800,-5.0600,-2.3500,-12.3125,57.0625,-52.1250,0.18188476562500,0.68896484375000,0.09619140625000,-0.69494628906250,moving
196.46,3,0,3,3,-0.0500,-5.7500,-0.7500,26.9375,36.2500,-54.6875,0.17663574218750,0.69110107421875,0.09844970703125,-0.69384765625000,moving
196.47,3,0,3,3,1.1400,-5.1200,-0.7800,44.9375,-0.8125,-64.8125,0.16998291015625,0.69122314453125,0.09967041015625,-0.69531250000000,moving
196.48,3,0,3,3,2.0800,-4.3000,-1.1300,35.3750,-12.5000,-78.4375,0.16314697265625,0.69024658203125,0.10211181640625,-0.69750976562500,moving
196.49,3,0,3,3,2.0800,-4.3000,-1.1300,35.3750,-12.5000,-78.4375,0.16314697265625,0.69024658203125,0.10211181640625,-0.69750976562500,moving
196.49,3,0,3,3,2.6100,-2.7100,-1.4200,15.4375,-5.3125,-88.0000,0.15686035156250,0.68939208984375,0.10644531250000,-0.69915771484375,moving
196.50,3,0,3,3,2.9000,0.3300,-1.2400,4.4375,0.9375,-92.1250,0.15093994140625,0.68859863281250,0.11175537109375,-0.70037841796875,moving
196.51,3,0,3,3,2.9300,1.6600,-1.0500,0.6875,0.0625,-95.1250,0.14501953125000,0.68768310546875,0.11749267578125,-0.70159912109375,moving
196.52,3,0,3,3,2.8100,2.7500,-0.7500,-1.2500,-0.6250,-96.4375,0.13916015625000,0.68664550781250,0.12335205078125,-0.70281982421875,moving
196.53,3,0,3,3,2.4200,4.0900,-0.3900,-4.3750,9.5000,-94.6250,0.13348388671875,0.68609619140625,0.12945556640625,-0.70330810546875,moving
196.54,3,0,3,3,0.1700,6.0800,0.3200,-4.5000,28.2500,-88.3125,0.12799072265625,0.68676757812500,0.13537597656250,-0.70257568359375,moving
196.55,3,0,3,3,-0.9200,7.2000,0.8500,-0.0625,45.8125,-74.5000,0.12280273437500,0.68872070312500,0.14038085937500,-0.70062255859375,moving
196.56,3,0,3,3,-1.6400,7.9800,1.3200,14.8750,49.8750,-56.5000,0.11785888671875,0.69122314453125,0.14343261718750,-0.69842529296875,moving
196.57,3,0,3,3,-0.9100,8.4900,2.4900,40.0625,40.1250,-41.1250,0.11236572265625,0.69354248046875,0.14385986328125,-0.69689941406250,moving
196.58,3,0,3,3,-0.9400,8.2300,2.9700,56.1250,23.8125,-34.6875,0.10656738281250,0.69512939453125,0.14282226562500,-0.69647216796875,moving
196.59,3,0,3,3,-0.4900,7.3800,3.7200,45.0000,16.0625,-33.9375,0.10156250000000,0.69610595703125,0.14227294921875,-0.69635009765625,moving
196.60,3,0,3,3,-0.6200,6.0100,4.3000,22.0000,27.8750,-29.8750,0.09808349609375,0.69763183593750,0.14300537109375,-0.69519042968750,moving
196.61,3,0,3,3,-2.1800,4.6000,4.8700,10.1250,41.1875,-16.8125,0.09594726562500,0.70001220703125,0.14373779296875,-0.69293212890625,moving
196.62,3,0,3,3,-3.2100,4.9900,4.5500,8.6250,34.8750,-4.3125,0.09472656250000,0.70208740234375,0.14379882812500,-0.69091796875000,moving
196.63,3,0,3,3,-3.5000,5.7100,3.4600,-0.9375,8.8125,3.4375,0.09490966796875,0.70269775390625,0.14367675781250,-0.69036865234375,moving
196.64,3,0,3,3,-3.8700,6.1000,2.4300,-23.9375,-10.1250,16.4375,0.09747314453125,0.70208740234375,0.14404296875000,-0.69055175781250,moving
196.65,3,0,3,3,-4.8300,6.7900,1.3400,-39.9375,-16.1875,32.7500,0.10211181640625,0.70117187500000,0.14422607421875,-0.69073486328125,moving
196.66,3,0,3,3,-4.5100,7.2500,1.0900,-38.0625,-19.2500,51.5625,0.10784912109375,0.70025634765625,0.14318847656250,-0.69097900390625,moving
196.67,3,0,3,3,-3.3800,7.1700,1.3000,-28.9375,-19.9375,69.1875,0.11407470703125,0.69964599609375,0.14050292968750,-0.69116210937500,moving
196.68,3,0,3,3,-2.1300,6.7000,1.2900,-17.1250,-25.8125,79.7500,0.12023925781250,0.69885253906250,0.13635253906250,-0.69177246093750,moving
196.69,3,0,3,3,-1.3200,5.4200,0.9700,-8.1250,-29.3750,88.8125,0.12652587890625,0.69805908203125,0.13110351562500,-0.69250488281250,moving
196.70,3,0,3,3,-0.9600,3.7800,0.8400,-4.5625,-27.5625,99.0000,0.13311767578125,0.69744873046875,0.12500000000000,-0.69299316406250,moving
196.71,3,0,3,3,-0.9900,2.5200,0.9500,-41.9375,-38.6875,105.4375,0.14251708984375,0.69567871093750,0.12060546875000,-0.69366455078125,moving
196.72,3,0,3,3,-1.0800,0.5300,0.5700,-41.9375,-38.6875,105.4375,0.15191650390625,0.69390869140625,0.11621093750000,-0.69421386718750,moving
196.74,3,0,3,3,-1.2200,-0.8500,0.6700,-62.5000,-25.1875,104.6250,0.16229248046875,0.69256591796875,0.11328125000000,-0.69366455078125,moving
196.75,3,0,3,3,-1.2200,-0.8500,0.6700,-62.5000,-25.1875,104.6250,0.16229248046875,0.69256591796875,0.11328125000000,-0.69366455078125,moving
196.75,3,0,3,3,-1.2700,-2.0000,0.5800,-52.8125,-15.6250,106.8750,0.17218017578125,0.69189453125000,0.10974121093750,-0.69256591796875,moving
196.76,3,0,3,3,-1.4000,-3.2200,0.0600,-37.5625,-20.4375,106.6875,0.18109130859375,0.69104003906250,0.10522460937500,-0.69177246093750,moving
196.77,3,0,3,3,-0.3400,-6.2000,-1.1300,-48.2500,-53.5625,85.3125,0.18969726562500,0.68780517578125,0.10205078125000,-0.69323730468750,moving
196.78,3,0,3,3,0.1200,-7.9300,-1.8500,-48.2500,-53.5625,85.3125,0.19824218750000,0.68444824218750,0.09893798828125,-0.69458007812500,moving
196.79,3,0,3,3,0.3300,-9.3700,-2.6000,-36.2500,-58.0625,74.1250,0.20544433593750,0.68090820312500,0.09570312500000,-0.69641113281250,moving
196.80,3,0,3,3,0.5600,-10.4000,-3.1200,-2.0625,-63.4375,60.5000,0.20977783203125,0.67749023437500,0.09106445312500,-0.69903564453125,moving
196.81,3,0,3,3,1.3600,-10.1600,-3.6100,34.1875,-76.1250,47.8750,0.21124267578125,0.67382812500000,0.08471679687500,-0.70294189453125,moving
196.82,3,0,3,3,1.7900,-9.3900,-4.1600,11.9375,-44.5000,31.1875,0.21282958984375,0.67156982421875,0.08135986328125,-0.70507812500000,moving
196.83,3,0,3,3,2.0600,-7.7900,-4.1200,-12.1250,-22.6875,21.9375,0.21502685546875,0.67010498046875,0.08038330078125,-0.70587158203125,moving
196.84,3,0,3,3,1.9000,-7.0600,-3.5400,-30.0625,-6.1875,7.7500,0.21728515625000,0.66918945312500,0.08166503906250,-0.70593261718750,moving
196.85,3,0,3,3,1.7700,-6.3400,-2.7600,-48.9375,11.2500,-8.3125,0.21954345703125,0.66888427734375,0.08538818359375,-0.70507812500000,moving
196.86,3,0,3,3,1.8000,-6.2600,-3.0100,-47.8750,33.9375,-23.0000,0.22064208984375,0.66986083984375,0.09033203125000,-0.70312500000000,moving
196.87,3,0,3,3,1.2500,-6.3500,-3.3700,-25.5625,54.6250,-35.3125,0.21954345703125,0.67242431640625,0.09503173828125,-0.70043945312500,moving
196.88,3,0,3,3,0.6700,-6.5300,-3.4500,5.3125,58.5625,-44.9375,0.21594238281250,0.67572021484375,0.09851074218750,-0.69787597656250,moving
196.89,3,0,3,3,0.7000,-5.9100,-2.7400,26.1875,47.0000,-54.6875,0.21063232421875,0.67858886718750,0.10107421875000,-0.69635009765625,moving
196.90,3,0,3,3,1.1100,-5.4100,-1.9500,32.9375,30.0625,-64.3750,0.20446777343750,0.68048095703125,0.10345458984375,-0.69604492187500,moving
196.91,3,0,3,3,1.4900,-4.5900,-1.3800,38.0000,20.7500,-72.1875,0.19763183593750,0.68176269531250,0.10583496093750,-0.69641113281250,moving
196.92,3,0,3,3,1.9000,-2.4900,-0.3700,37.1250,13.4375,-80.6875,0.19036865234375,0.68243408203125,0.10864257812500,-0.69732666015625,moving
196.93,3,0,3,3,1.8000,-1.3300,0.2400,30.8125,11.5000,-86.5625,0.18310546875000,0.68280029296875,0.11212158203125,-0.69830322265625,moving
196.94,3,0,3,3,1.5300,-0.5300,0.4700,22.7500,21.6250,-92.0625,0.17584228515625,0.68359375000000,0.11663818359375,-0.69866943359375,moving
196.95,3,0,3,3,1.0100,0.1100,0.4900,22.8125,29.1250,-96.1250,0.16827392578125,0.68469238281250,0.12145996093750,-0.69860839843750,moving
196.96,3,0,3,3,0.5800,1.5300,1.1600,33.7500,24.3125,-97.0000,0.16009521484375,0.68566894531250,0.12554931640625,-0.69891357421875,moving
196.97,3,0,3,3,0.7400,2.0200,1.6900,43.0625,15.0000,-94.1875,0.15155029296875,0.68609619140625,0.12884521484375,-0.69976806640625,moving
196.98,3,0,3,3,0.2800,2.4600,1.8200,40.3750,17.7500,-93.6875,0.14312744140625,0.68664550781250,0.13220214843750,-0.70037841796875,moving
196.99,3,0,3,3,0.2100,3.0500,2.0400,32.5625,24.8125,-88.9375,0.13543701171875,0.68750000000000,0.13592529296875,-0.70037841796875,moving
197.00,3,0,3,3,-0.8100,4.9000,2.3700,30.6875,22.4375,-80.4375,0.12841796875000,0.68829345703125,0.13916015625000,-0.70031738281250,moving
197.01,3,0,3,3,-0.8100,4.9000,2.3700,30.6875,22.4375,-80.4375,0.12841796875000,0.68829345703125,0.13916015625000,-0.70031738281250,moving
197.01,3,0,3,3,-1.4500,5.6600,2.3800,27.1875,13.1875,-70.8750,0.12225341796875,0.68847656250000,0.14190673828125,-0.70062255859375,moving
197.02,3,0,3,3,-1.9800,6.5200,2.3600,15.3750,-1.6250,-58.5625,0.11773681640625,0.68780517578125,0.14447021484375,-0.70153808593750,moving
197.03,3,0,3,3,-2.8600,7.7700,2.2800,1.6250,-13.5625,-42.8125,0.11517333984375,0.68646240234375,0.14685058593750,-0.70281982421875,moving
197.04,3,0,3,3,-3.7800,9.9800,2.4300,-2.9375,-20.3750,-27.6250,0.11389160156250,0.68481445312500,0.14849853515625,-0.70428466796875,moving
197.05,3,0,3,3,-3.1600,10.6800,2.2700,1.5000,-9.9375,-15.7500,0.11297607421875,0.68402099609375,0.14923095703125,-0.70501708984375,moving
197.06,3,0,3,3,-2.1500,10.1700,2.1000,6.5625,6.0000,-6.6250,0.11212158203125,0.68438720703125,0.14929199218750,-0.70483398437500,moving
197.07,3,0,3,3,-1.6300,7.3600,2.5600,10.5000,14.3125,8.4375,0.11181640625000,0.68542480468750,0.14825439453125,-0.70404052734375,moving
197.08,3,0,3,3,-2.0100,5.7600,3.0200,9.3750,21.2500,23.6250,0.11242675781250,0.68713378906250,0.14642333984375,-0.70263671875000,moving
197.09,3,0,3,3,-2.2400,4.7500,2.9600,3.5625,28.6875,33.1250,0.11389160156250,0.68933105468750,0.14447021484375,-0.70068359375000,moving
197.10,3,0,3,3,-2.4900,4.3100,2.6900,0.5625,22.6875,40.8125,0.11608886718750,0.69122314453125,0.14221191406250,-0.69891357421875,moving
197.11,3,0,3,3,-2.2500,4.5000,2.3100,5.3125,7.7500,50.6250,0.11883544921875,0.69238281250000,0.13885498046875,-0.69799804687500,moving
197.12,3,0,3,3,-2.1000,4.2000,2.0100,14.3750,-8.5625,61.6250,0.12182617187500,0.69274902343750,0.13415527343750,-0.69805908203125,moving
197.13,3,0,3,3,-1.9300,4.0700,1.8600,22.9375,-26.7500,73.0000,0.12524414062500,0.69219970703125,0.12799072265625,-0.69915771484375,moving
197.14,3,0,3,3,-1.6300,3.9000,1.6400,19.0625,-40.3125,80.8750,0.12951660156250,0.69079589843750,0.12145996093750,-0.70092773437500,moving
197.15,3,0,3,3,-1.6800,3.4300,0.6100,0.6250,-45.6875,86.7500,0.13531494140625,0.68890380859375,0.11560058593750,-0.70269775390625,moving
197.16,3,0,3,3,-1.6800,3.1600,0.1000,-21.9375,-41.6875,90.2500,0.14257812500000,0.68695068359375,0.11102294921875,-0.70385742187500,moving
197.17,3,0,3,3,-1.7100,3.0100,-0.2900,-33.3750,-33.4375,95.0000,0.15081787109375,0.68536376953125,0.10693359375000,-0.70434570312500,moving
197.18,3,0,3,3,-1.7000,2.7600,-0.4700,-32.5000,-27.4375,103.8125,0.15942382812500,0.68414306640625,0.10229492187500,-0.70428466796875,moving
197.19,3,0,3,3,-0.8900,1.1200,-0.8500,-27.5000,-30.8125,113.8125,0.16833496093750,0.68286132812500,0.09667968750000,-0.70428466796875,moving
197.20,3,0,3,3,-0.4200,-0.1400,-0.8700,-15.8125,-36.8125,121.2500,0.17712402343750,0.68133544921875,0.08984375000000,-0.70452880859375,moving
197.21,3,0,3,3,0.1900,-1.6800,-0.8500,3.6875,-38.4375,124.6875,0.18487548828125,0.67993164062500,0.08160400390625,-0.70489501953125,moving
197.22,3,0,3,3,0.7800,-3.1500,-0.9900,18.6875,-40.3125,122.9375,0.19165039062500,0.67858886718750,0.07244873046875,-0.70538330078125,moving
197.23,3,0,3,3,1.7800,-6.1000,-0.7900,28.8125,-39.6875,117.6875,0.19744873046875,0.67730712890625,0.06298828125000,-0.70587158203125,moving
197.23,3,0,3,3,1.8000,-7.5300,-1.1300,35.2500,-35.3125,110.5000,0.20239257812500,0.67633056640625,0.05364990234375,-0.70623779296875,moving
197.24,3,0,3,3,1.7600,-8.7000,-1.5800,27.7500,-38.8125,96.6250,0.20690917968750,0.67480468750000,0.04553222656250,-0.70690917968750,moving
197.25,3,0,3,3,1.6300,-11.3200,-3.2600,18.2500,-37.2500,75.3750,0.21063232421875,0.67309570312500,0.03924560546875,-0.70782470703125,moving
197.26,3,0,3,3,1.6300,-11.3200,-3.2600,18.2500,-37.2500,75.3750,0.21063232421875,0.67309570312500,0.03924560546875,-0.70782470703125,moving
197.27,3,0,3,3,1.6000,-12.5000,-4.5500,24.5625,-27.6875,54.8125,0.21270751953125,0.67205810546875,0.03399658203125,-0.70849609375000,moving
197.27,3,0,3,3,1.9400,-13.4700,-5.3300,47.8750,-15.5625,40.5625,0.21246337890625,0.67205810546875,0.02838134765625,-0.70880126953125,moving
197.28,3,0,3,3,2.4700,-11.6200,-5.1300,70.2500,-2.9375,30.5000,0.21020507812500,0.67321777343750,0.02215576171875,-0.70855712890625,moving
197.29,3,0,3,3,1.5800,-8.8200,-3.9300,69.6250,9.7500,14.1250,0.20697021484375,0.67510986328125,0.01721191406250,-0.70788574218750,moving
197.30,3,0,3,3,1.1400,-7.1700,-3.0400,37.1875,27.4375,-10.0000,0.20410156250000,0.67749023437500,0.01605224609375,-0.70648193359375,moving
197.31,3,0,3,3,0.5700,-5.9500,-2.2500,-1.0000,48.0000,-33.0000,0.20202636718750,0.68035888671875,0.01892089843750,-0.70422363281250,moving
197.32,3,0,3,3,0.1300,-4.9500,-1.5800,-29.7500,64.0000,-54.8125,0.20025634765625,0.68365478515625,0.02514648437500,-0.70129394531250,moving
197.33,3,0,3,3,-0.9500,-4.1300,-1.1600,-42.9375,77.1250,-71.1875,0.19830322265625,0.68743896484375,0.03338623046875,-0.69781494140625,moving
197.34,3,0,3,3,-1.6800,-4.0100,-1.1000,-35.3750,78.4375,-82.3750,0.19512939453125,0.69134521484375,0.04187011718750,-0.69439697265625,moving
197.35,3,0,3,3,-1.8400,-4.2700,-0.7200,-10.7500,55.0625,-88.3125,0.19018554687500,0.69415283203125,0.04882812500000,-0.69250488281250,moving
197.36,3,0,3,3,-1.1100,-4.4500,-0.1700,16.1875,25.1250,-93.1875,0.18341064453125,0.69555664062500,0.05395507812500,-0.69256591796875,moving
197.37,3,0,3,3,0.0500,-5.2200,-0.3000,26.6875,12.0000,-103.5625,0.17541503906250,0.69616699218750,0.05883789062500,-0.69360351562500,moving
197.38,3,0,3,3,0.4500,-5.5000,-0.5500,32.2500,14.8125,-114.3750,0.16644287109375,0.69696044921875,0.06408691406250,-0.69458007812500,moving
197.39,3,0,3,3,0.3900,-5.4300,-0.7300,43.2500,8.5000,-122.4375,0.15625000000000,0.69738769531250,0.06909179687500,-0.69604492187500,moving
197.40,3,0,3,3,0.4900,-4.8400,-0.5200,52.6250,-1.7500,-129.3125,0.14514160156250,0.69714355468750,0.07379150390625,-0.69818115234375,moving
197.41,3,0,3,3,0.5700,-3.8000,-0.3100,57.0000,-8.1250,-135.1250,0.13348388671875,0.69647216796875,0.07849121093750,-0.70068359375000,moving
197.42,3,0,3,3,0.6200,-2.8700,-0.5000,57.8125,-9.7500,-140.4375,0.12133789062500,0.69549560546875,0.08337402343750,-0.70324707031250,moving
197.43,3,0,3,3,0.7100,-1.5100,-0.5700,49.5000,-7.5000,-144.5000,0.10949707031250,0.69445800781250,0.08911132812500,-0.70550537109375,moving
197.44,3,0,3,3,0.5900,1.8800,0.2900,25.0625,-4.6875,-144.6875,0.09906005859375,0.69323730468750,0.09631347656250,-0.70733642578125,moving
197.45,3,0,3,3,0.1000,3.7300,0.8200,-5.8750,0.4375,-141.2500,0.09063720703125,0.69195556640625,0.10528564453125,-0.70843505859375,moving
197.46,3,0,3,3,-0.6900,5.7700,1.1200,-33.5625,8.5625,-131.3750,0.08441162109375,0.69097900390625,0.11535644531250,-0.70861816406250,moving
197.47,3,0,3,3,-2.0800,7.5100,1.3500,-42.6875,15.0625,-112.0625,0.07983398437500,0.69042968750000,0.12493896484375,-0.70806884765625,moving
197.48,3,0,3,3,-4.6100,11.5800,1.3700,-19.4375,31.3125,-80.6250,0.07568359375000,0.69134521484375,0.13122558593750,-0.70648193359375,moving
197.49,3,0,3,3,-4.9400,13.8900,1.1900,20.4375,36.1250,-52.6250,0.07073974609375,0.69305419921875,0.13342285156250,-0.70489501953125,moving
197.50,3,0,3,3,-5.2500,16.3500,1.2700,46.5000,12.7500,-29.1250,0.06597900390625,0.69378662109375,0.13238525390625,-0.70483398437500,moving
197.51,3,0,3,2,-5.3200,18.0600,1.2100,40.0625,-10.7500,-7.9375,0.06317138671875,0.69323730468750,0.13037109375000,-0.70599365234375,moving
197.52,3,0,3,2,-5.3200,18.0600,1.2100,40.0625,-10.7500,-7.9375,0.06317138671875,0.69323730468750,0.13037109375000,-0.70599365234375,moving
197.53,3,0,3,2,-1.4300,14.9800,1.3200,31.5000,-23.0000,-14.0625,0.06066894531250,0.69183349609375,0.12915039062500,-0.70776367187500,moving
197.53,3,0,3,2,0.4200,9.8400,2.4000,54.5625,-22.1250,-6.1875,0.05725097656250,0.69073486328125,0.12603759765625,-0.70977783203125,moving
197.54,3,0,3,2,0.5300,7.6600,5.1200,55.7500,-8.0625,27.7500,0.05572509765625,0.69079589843750,0.12084960937500,-0.71069335937500,moving
197.55,3,0,3,2,-0.7500,6.0400,5.6300,18.2500,41.1875,43.3125,0.05688476562500,0.69384765625000,0.11724853515625,-0.70819091796875,moving
197.56,3,0,3,2,-4.0800,3.9700,4.0600,-7.8125,53.9375,54.0000,0.06018066406250,0.69769287109375,0.11468505859375,-0.70458984375000,moving
197.57,3,0,3,2,-4.4200,3.9200,3.3000,-19.5000,32.0625,59.7500,0.06475830078125,0.70013427734375,0.11236572265625,-0.70208740234375,moving
197.58,3,0,3,2,-4.2100,3.8200,2.5500,-23.5625,9.9375,66.5000,0.07025146484375,0.70129394531250,0.10980224609375,-0.70086669921875,moving
197.59,3,0,3,2,-2.7300,4.4200,1.8700,-19.8750,-4.3750,74.8125,0.07611083984375,0.70153808593750,0.10632324218750,-0.70050048828125,moving
197.60,3,0,3,2,-1.8000,4.3700,1.6100,-18.6875,-15.0625,80.8750,0.08239746093750,0.70123291015625,0.10241699218750,-0.70068359375000,moving
197.61,3,0,3,2,-1.3700,4.1200,1.3200,-22.5000,-26.2500,85.1250,0.08923339843750,0.70019531250000,0.09832763671875,-0.70147705078125,moving
197.62,3,0,3,2,-0.9700,4.1300,1.0200,-27.5000,-36.3125,88.6250,0.09674072265625,0.69848632812500,0.09423828125000,-0.70275878906250,moving
197.63,3,0,3,2,-0.3000,3.0900,0.3900,-39.6250,-41.7500,91.1250,0.10510253906250,0.69628906250000,0.09069824218750,-0.70416259765625,moving
197.64,3,0,3,2,-0.3300,2.5800,0.1800,-59.6875,-40.6250,94.2500,0.11486816406250,0.69396972656250,0.08825683593750,-0.70532226562500,moving
197.65,3,0,3,2,-0.6500,1.8900,0.0000,-82.2500,-32.0625,96.0000,0.12609863281250,0.69183349609375,0.08709716796875,-0.70562744140625,moving
197.66,3,0,3,2,-1.0300,0.9300,-0.3500,-89.1250,-26.1875,99.9375,0.13781738281250,0.68994140625000,0.08618164062500,-0.70538330078125,moving
197.67,3,0,3,2,-1.2900,-1.7600,0.3000,-69.9375,-36.6875,108.3125,0.14904785156250,0.68762207031250,0.08349609375000,-0.70568847656250,moving
197.68,3,0,3,2,-1.4200,-3.3200,0.5000,-37.4375,-55.6875,118.1875,0.15899658203125,0.68450927734375,0.07794189453125,-0.70721435546875,moving
197.69,3,0,3,2,-0.7800,-5.1300,-0.1500,-20.5000,-79.8125,114.5625,0.16790771484375,0.67999267578125,0.07116699218750,-0.71020507812500,moving
197.70,3,0,3,2,0.5000,-6.3800,1.1400,-23.9375,-89.0625,103.7500,0.17633056640625,0.67468261718750,0.06518554687500,-0.71374511718750,moving
197.71,3,0,3,2,0.8500,-7.7500,-1.5100,-59.8125,-67.1875,98.0625,0.18634033203125,0.67010498046875,0.06201171875000,-0.71582031250000,moving
197.72,3,0,3,2,0.8400,-8.0800,-3.2100,-88.8125,-51.6875,83.1250,0.19702148437500,0.66577148437500,0.06182861328125,-0.71697998046875,moving
197.73,3,0,3,2,0.9400,-9.9500,-4.7800,-70.8750,-34.3750,49.8125,0.20446777343750,0.66265869140625,0.06274414062500,-0.71771240234375,moving
197.74,3,0,3,2,0.9800,-11.7500,-6.3700,-3.1875,-18.0625,23.9375,0.20623779296875,0.66162109375000,0.06127929687500,-0.71832275390625,stop
197.75,3,0,3,2,3.1900,-13.3400,-8.1600,90.5625,-28.1875,21.6250,0.20257568359375,0.66156005859375,0.05383300781250,-0.72003173828125,stop
197.76,3,0,3,2,1.9600,-10.3700,-6.8500,171.3125,-37.1250,38.8750,0.19525146484375,0.66235351562500,0.04016113281250,-0.72222900390625,stop
197.78,3,0,3,2,1.6100,-8.6800,-4.6200,151.6250,-18.6875,25.6875,0.18817138671875,0.66375732421875,0.02880859375000,-0.72332763671875,stop
197.78,3,0,3,2,1.6100,-8.6800,-4.6200,151.6250,-18.6875,25.6875,0.18817138671875,0.66375732421875,0.02880859375000,-0.72332763671875,stop
197.78,3,0,3,2,0.7700,-6.4700,-3.5500,75.4375,21.4375,-2.6875,0.18353271484375,0.66632080078125,0.02453613281250,-0.72229003906250,stop
197.79,3,0,3,2,0.4400,-6.0100,-3.5500,8.0625,50.9375,-28.3125,0.18115234375000,0.66961669921875,0.02648925781250,-0.71978759765625,stop
197.80,3,0,3,2,0.0400,-5.6000,-3.1800,-35.8750,65.7500,-46.8750,0.18011474609375,0.67303466796875,0.03259277343750,-0.71655273437500,stop
197.81,3,0,3,2,-0.2100,-5.2800,-2.7400,-63.1250,76.5625,-62.8125,0.17968750000000,0.67663574218750,0.04144287109375,-0.71282958984375,stop
197.82,3,0,3,2,-0.9800,-5.1000,-2.2800,-78.0625,79.3750,-75.9375,0.17919921875000,0.68005371093750,0.05206298828125,-0.70904541015625,stop
197.83,3,0,3,2,-1.6000,-4.9200,-1.9500,-80.5000,80.0625,-87.2500,0.17816162109375,0.68328857421875,0.06347656250000,-0.70520019531250,stop
197.84,3,0,3,2,-2.8100,-4.1100,-1.6500,-70.6250,82.8750,-93.8125,0.17608642578125,0.68676757812500,0.07476806640625,-0.70129394531250,stop
197.86,3,0,3,2,-4.4100,-3.1400,-1.1600,-27.1250,79.0000,-88.5000,0.17175292968750,0.69055175781250,0.08294677734375,-0.69769287109375,stop
197.86,3,0,3,2,-5.3200,-1.1600,0.7600,63.8125,78.6250,-71.9375,0.16290283203125,0.69573974609375,0.08459472656250,-0.69439697265625,stop
197.87,3,0,3,2,-4.0800,-0.2700,1.7100,150.4375,57.9375,-67.3750,0.14923095703125,0.70080566406250,0.08044433593750,-0.69287109375000,stop
197.88,3,0,3,2,-2.5000,0.1700,2.7900,161.7500,22.7500,-74.1250,0.13464355468750,0.70373535156250,0.07556152343750,-0.69348144531250,stop
197.89,3,0,3,2,-1.8200,1.1000,3.2900,127.2500,21.2500,-77.3750,0.12194824218750,0.70593261718750,0.07287597656250,-0.69390869140625,stop
197.90,3,0,3,2,-1.5300,3.7300,3.1500,95.6250,32.6875,-78.3125,0.11108398437500,0.70837402343750,0.07226562500000,-0.69323730468750,stop
197.91,3,0,3,2,-1.4200,4.6100,3.1300,78.6875,35.0000,-76.0000,0.10131835937500,0.71075439453125,0.07257080078125,-0.69232177734375,stop
197.93,3,0,3,2,-1.0500,5.2000,3.1400,63.2500,34.0000,-72.1250,0.09283447265625,0.71289062500000,0.07360839843750,-0.69122314453125,stop
197.94,3,0,3,2,0.7400,4.7400,3.3000,44.9375,24.8125,-71.3750,0.08551025390625,0.71429443359375,0.07556152343750,-0.69049072265625,stop
197.94,3,0,3,2,1.2100,4.4800,3.2500,28.0625,16.3125,-69.0000,0.07946777343750,0.71496582031250,0.07830810546875,-0.69018554687500,stop
197.95,3,0,3,2,1.3900,4.8400,3.0000,12.3125,14.5625,-64.1875,0.07470703125000,0.71551513671875,0.08166503906250,-0.68981933593750,stop
197.96,3,0,3,2,1.6200,5.3700,2.4700,-2.2500,11.1250,-59.0000,0.07122802734375,0.71569824218750,0.08557128906250,-0.68945312500000,stop
197.97,3,0,3,2,0.8900,6.1700,1.6300,-15.7500,8.3750,-53.9375,0.06890869140625,0.71569824218750,0.08996582031250,-0.68914794921875,stop
197.98,3,0,3,2,0.6700,6.3400,1.4700,-26.1250,7.3125,-51.4375,0.06738281250000,0.71557617187500,0.09478759765625,-0.68878173828125,stop
197.99,3,0,3,2,0.4600,6.5300,1.5200,-36.3125,7.3750,-48.0625,0.06665039062500,0.71539306640625,0.10003662109375,-0.68829345703125,stop
198.01,3,0,3,2,0.3200,6.4700,1.4600,-47.1875,12.0000,-43.0000,0.06695556640625,0.71545410156250,0.10559082031250,-0.68743896484375,stop
198.02,3,0,3,2,0.1100,5.0600,1.2500,-53.6250,15.9375,-36.8750,0.06793212890625,0.71569824218750,0.11120605468750,-0.68615722656250,stop
198.03,3,0,3,2,0.0000,3.9200,1.1900,-51.7500,11.8750,-29.3125,0.06927490234375,0.71582031250000,0.11621093750000,-0.68505859375000,stop
198.03,3,0,3,2,-0.3900,2.9800,1.3300,-43.3125,-1.6875,-21.7500,0.07073974609375,0.71520996093750,0.12011718750000,-0.68487548828125,stop
198.04,3,0,3,2,-0.3900,2.9800,1.3300,-43.3125,-1.6875,-21.7500,0.07073974609375,0.71520996093750,0.12011718750000,-0.68487548828125,stop
198.04,3,0,3,2,-0.6600,2.4800,1.4900,-40.3750,-15.3125,-18.8125,0.07232666015625,0.71380615234375,0.12359619140625,-0.68554687500000,stop
198.05,3,0,3,2,-0.8700,1.7400,1.1600,-51.4375,-23.1250,-18.5625,0.07464599609375,0.71191406250000,0.12768554687500,-0.68652343750000,stop
198.06,3,0,3,2,-1.0500,1.6000,0.9600,-64.1250,-32.1250,-17.0000,0.07800292968750,0.70935058593750,0.13232421875000,-0.68792724609375,stop
198.07,3,0,3,2,-1.1600,1.3100,0.5800,-69.1875,-40.0625,-14.7500,0.08184814453125,0.70623779296875,0.13708496093750,-0.68969726562500,stop
198.09,3,0,3,2,-1.0400,1.0500,0.3300,-65.3125,-49.6250,-9.8125,0.08593750000000,0.70263671875000,0.14123535156250,-0.69207763671875,stop
198.10,3,0,3,2,-0.1800,0.8500,0.2000,-59.3750,-60.6250,-1.1875,0.09027099609375,0.69848632812500,0.14447021484375,-0.69506835937500,stop
198.11,3,0,3,2,0.2300,0.7200,0.0800,-50.7500,-64.7500,7.9375,0.09466552734375,0.69421386718750,0.14648437500000,-0.69830322265625,stop
198.11,3,0,3,2,0.6900,0.4300,0.0000,-41.3750,-65.8125,15.0625,0.09893798828125,0.69006347656250,0.14752197265625,-0.70159912109375,stop
198.12,3,0,3,2,1.2400,0.1400,-0.5300,-34.8750,-68.0625,19.8750,0.10314941406250,0.68579101562500,0.14788818359375,-0.70507812500000,stop
198.13,3,0,3,2,1.2500,-0.0500,-0.9000,-32.0625,-73.5000,21.1250,0.10736083984375,0.68121337890625,0.14788818359375,-0.70886230468750,stop
198.14,3,0,3,2,1.2700,-0.3700,-1.3500,-33.0000,-76.6250,20.5000,0.11157226562500,0.67645263671875,0.14794921875000,-0.71282958984375,stop
198.16,3,0,3,2,1.4200,-0.5800,-1.5500,-33.9375,-77.6250,17.0625,0.11566162109375,0.67144775390625,0.14831542968750,-0.71679687500000,stop
198.17,3,0,3,2,1.5000,-0.6600,-1.6400,-37.2500,-72.8750,12.5000,0.11956787109375,0.66668701171875,0.14910888671875,-0.72045898437500,stop
198.18,3,0,3,2,1.5400,-0.4800,-1.8100,-44.5000,-62.9375,7.2500,0.12347412109375,0.66229248046875,0.15081787109375,-0.72344970703125,stop
198.19,3,0,3,2,1.4000,-0.2400,-1.9400,-50.5000,-50.4375,1.7500,0.12719726562500,0.65856933593750,0.15332031250000,-0.72564697265625,stop
198.19,3,0,3,2,1.2600,-0.0700,-1.9400,-49.4375,-40.2500,-1.7500,0.13043212890625,0.65545654296875,0.15612792968750,-0.72729492187500,stop
198.20,3,0,3,2,0.9900,0.1300,-1.6800,-42.1875,-29.8125,-1.8750,0.13317871093750,0.65301513671875,0.15856933593750,-0.72845458984375,stop
198.22,3,0,3,2,0.9200,-0.0900,-1.5700,-32.8750,-23.3750,-0.4375,0.13537597656250,0.65118408203125,0.16033935546875,-0.72937011718750,stop
198.23,3,0,3,2,0.8200,-0.3500,-1.4100,-23.0625,-21.3750,1.1250,0.13708496093750,0.64953613281250,0.16149902343750,-0.73022460937500,stop
198.24,3,0,3,2,0.7700,-0.5300,-1.3600,-15.7500,-17.6250,3.0625,0.13842773437500,0.64825439453125,0.16210937500000,-0.73095703125000,stop
198.25,3,0,3,2,0.5900,-0.8000,-1.4300,-10.9375,-13.3125,3.8750,0.13952636718750,0.64733886718750,0.16241455078125,-0.73150634765625,stop
198.26,3,0,3,2,0.5000,-0.8400,-1.3900,-8.8750,-9.5625,4.1250,0.14038085937500,0.64666748046875,0.16259765625000,-0.73187255859375,stop
198.27,3,0,3,3,0.4100,-0.8800,-1.2900,-8.4375,-4.9375,3.8750,0.14123535156250,0.64630126953125,0.16284179687500,-0.73199462890625,stop
198.28,3,0,3,3,0.5100,-0.8700,-1.1000,-8.0000,-1.2500,3.1875,0.14190673828125,0.64617919921875,0.16314697265625,-0.73193359375000,stop
198.28,3,0,3,3,0.5400,-0.6800,-0.9600,-6.1250,1.4375,2.9375,0.14245605468750,0.64624023437500,0.16339111328125,-0.73168945312500,stop
198.29,3,0,3,3,0.5600,-0.5300,-0.9000,-3.1875,4.3750,3.3125,0.14276123046875,0.64654541015625,0.16345214843750,-0.73138427734375,stop
198.31,3,0,3,3,0.6300,-0.3900,-0.8000,0.1875,5.8750,3.5000,0.14294433593750,0.64697265625000,0.16333007812500,-0.73095703125000,stop
198.32,3,0,3,3,0.5000,-0.3400,-0.5100,3.6250,7.6875,3.4375,0.14282226562500,0.64758300781250,0.16296386718750,-0.73052978515625,stop
198.33,3,0,3,3,0.4900,-0.2900,-0.3600,5.8125,9.9375,3.9375,0.14263916015625,0.64831542968750,0.16247558593750,-0.73004150390625,stop
198.34,3,0,3,3,0.1100,-0.4600,-0.3800,9.3125,12.1875,3.9375,0.14215087890625,0.64929199218750,0.16180419921875,-0.72943115234375,stop
198.35,3,0,3,3,0.1600,-0.3800,-0.1800,13.8750,12.0000,5.1875,0.14154052734375,0.65026855468750,0.16076660156250,-0.72888183593750,stop
198.36,3,0,3,3,0.2000,-0.5200,0.0300,16.3125,12.3125,5.7500,0.14080810546875,0.65136718750000,0.15954589843750,-0.72833251953125,stop
198.36,3,0,3,3,0.2600,-0.5500,0.1100,16.8750,12.6250,6.0000,0.14007568359375,0.65246582031250,0.15832519531250,-0.72772216796875,stop
198.37,3,0,3,3,0.2700,-0.6400,0.1200,17.4375,11.5000,5.8125,0.13928222656250,0.65350341796875,0.15698242187500,-0.72723388671875,stop
198.38,3,0,3,3,0.2500,-0.6400,0.1200,17.5000,8.8125,5.3125,0.13848876953125,0.65435791015625,0.15570068359375,-0.72692871093750,stop
198.40,3,0,3,3,0.1600,-0.4100,0.1600,16.6250,5.8125,4.4375,0.13775634765625,0.65496826171875,0.15441894531250,-0.72674560546875,stop
198.40,3,0,3,3,0.1600,-0.4100,0.1600,16.6250,5.8125,4.4375,0.13775634765625,0.65496826171875,0.15441894531250,-0.72674560546875,stop
198.41,3,0,3,3,0.1500,-0.2100,0.2000,14.7500,4.3750,3.6875,0.13708496093750,0.65545654296875,0.15332031250000,-0.72668457031250,stop
198.42,3,0,3,3,0.1800,0.0600,0.2200,12.7500,3.5625,2.9375,0.13653564453125,0.65588378906250,0.15240478515625,-0.72656250000000,stop
198.43,3,0,3,3,0.2600,0.2800,0.2000,10.3125,2.7500,2.1875,0.13604736328125,0.65625000000000,0.15167236328125,-0.72650146484375,stop
198.44,3,0,3,3,0.2400,0.5300,0.1100,8.0000,1.8125,1.8125,0.13568115234375,0.65649414062500,0.15106201171875,-0.72650146484375,stop
198.44,3,0,3,3,0.1800,0.6000,0.1400,6.1875,1.8125,1.6875,0.13537597656250,0.65667724609375,0.15057373046875,-0.72644042968750,stop
198.45,3,0,3,3,0.0900,0.5800,0.1400,5.2500,3.0000,1.9375,0.13519287109375,0.65698242187500,0.15020751953125,-0.72631835937500,stop
198.47,3,0,3,3,0.1000,0.4200,0.1700,4.6250,4.5000,2.1875,0.13500976562500,0.65734863281250,0.14984130859375,-0.72613525390625,stop
198.48,3,0,3,3,0.1400,0.2800,0.1900,3.4375,4.5000,2.0000,0.13488769531250,0.65771484375000,0.14953613281250,-0.72589111328125,stop
198.49,3,0,3,3,0.1500,0.1500,0.2000,1.5000,3.7500,1.3125,0.13482666015625,0.65795898437500,0.14941406250000,-0.72564697265625,stop
198.50,3,0,3,3,0.0900,0.0300,0.1800,-1.3125,1.6875,0.3125,0.13488769531250,0.65808105468750,0.14947509765625,-0.72552490234375,stop
198.51,3,0,3,3,-0.0500,0.0000,0.0900,-3.6250,-0.4375,-0.5625,0.13507080078125,0.65802001953125,0.14978027343750,-0.72546386718750,stop
198.52,3,0,3,3,0.0000,0.0300,0.0200,-5.0000,-3.0625,-1.5625,0.13525390625000,0.65771484375000,0.15014648437500,-0.72564697265625,stop
198.53,3,0,3,3,0.0900,0.0100,-0.0600,-5.5000,-5.1875,-1.8750,0.13555908203125,0.65734863281250,0.15051269531250,-0.72589111328125,stop
198.54,3,0,3,3,0.2100,0.0000,-0.1600,-5.3750,-5.8750,-1.6250,0.13586425781250,0.65686035156250,0.15087890625000,-0.72613525390625,stop
198.55,3,0,3,3,0.2100,-0.0800,-0.3900,-3.9375,-5.6875,-1.2500,0.13604736328125,0.65643310546875,0.15112304687500,-0.72644042968750,stop
198.56,3,0,3,3,0.2500,-0.0400,-0.3400,-1.8750,-5.0625,-1.3750,0.13616943359375,0.65606689453125,0.15130615234375,-0.72674560546875,stop
198.57,3,0,3,3,0.3600,-0.1000,-0.2600,-1.4375,-1.7500,-1.6250,0.13616943359375,0.65594482421875,0.15142822265625,-0.72680664062500,stop
198.58,3,0,3,3,0.4100,-0.0800,-0.2300,-0.3125,1.3125,-1.4375,0.13604736328125,0.65600585937500,0.15155029296875,-0.72674560546875,stop
198.59,3,0,3,3,0.3300,0.0100,-0.0800,1.5625,2.3750,-0.9375,0.13586425781250,0.65612792968750,0.15155029296875,-0.72668457031250,stop
198.60,3,0,3,3,0.2400,0.0600,0.0600,2.6250,3.2500,-0.2500,0.13519287109375,0.65905761718750,0.15203857421875,-0.72399902343750,stop
198.61,3,0,3,3,0.2400,0.0800,0.1300,2.5625,4.1250,0.1250,0.13500976562500,0.65936279296875,0.15191650390625,-0.72381591796875,stop
198.62,3,0,3,3,0.1500,0.1600,0.2500,2.3750,3.6875,0.1875,0.13482666015625,0.65960693359375,0.15179443359375,-0.72363281250000,stop
198.63,3,0,3,3,0.1400,0.2000,0.2700,2.0625,2.5000,-0.0625,0.13470458984375,0.65979003906250,0.15167236328125,-0.72351074218750,stop
198.64,3,0,3,3,0.1700,0.2500,0.2300,0.8125,1.1875,-0.3750,0.13464355468750,0.65991210937500,0.15161132812500,-0.72344970703125,stop
198.65,3,0,3,3,0.2100,0.2900,0.2300,0.0000,-0.5000,-1.0000,0.13458251953125,0.65991210937500,0.15167236328125,-0.72344970703125,stop
198.66,3,0,3,3,0.1600,0.3700,0.2100,-1.0000,-2.0000,-1.5000,0.13470458984375,0.65966796875000,0.15167236328125,-0.72369384765625,stop
198.67,3,0,3,3,0.1100,0.2700,0.1700,-1.6250,-2.2500,-1.5625,0.13482666015625,0.65942382812500,0.15167236328125,-0.72387695312500,stop
198.68,3,0,3,3,0.1400,0.1900,0.1100,-2.0000,-2.5625,-1.5625,0.13494873046875,0.65917968750000,0.15179443359375,-0.72406005859375,stop
198.69,3,0,3,3,0.2100,0.1200,0.1000,-2.5000,-3.4375,-1.7500,0.13513183593750,0.65887451171875,0.15191650390625,-0.72424316406250,stop
198.70,3,0,3,3,0.2800,0.1200,-0.0500,-3.5000,-3.4375,-2.1250,0.13525390625000,0.65856933593750,0.15222167968750,-0.72442626953125,stop
198.71,3,0,3,3,0.2800,0.1400,-0.0600,-4.1250,-3.6250,-2.0000,0.13543701171875,0.65826416015625,0.15252685546875,-0.72460937500000,stop
198.72,3,0,3,3,0.3000,0.1800,-0.0900,-3.8750,-3.2500,-1.6250,0.13562011718750,0.65802001953125,0.15277099609375,-0.72473144531250,stop
198.73,3,0,3,3,0.3100,0.1700,-0.0700,-3.5625,-2.8750,-1.1250,0.13586425781250,0.65777587890625,0.15301513671875,-0.72485351562500,stop
198.74,3,0,3,3,0.3200,0.0900,-0.1600,-3.4375,-2.2500,-1.1250,0.13604736328125,0.65759277343750,0.15325927734375,-0.72497558593750,stop
198.75,3,0,3,3,0.3300,0.1000,-0.1800,-3.3750,-1.3750,-1.0625,0.13623046875000,0.65747070312500,0.15350341796875,-0.72497558593750,stop
198.76,3,0,3,3,0.3500,0.1100,-0.1200,-3.0625,-0.0625,-1.3750,0.13629150390625,0.65747070312500,0.15374755859375,-0.72491455078125,stop
198.77,3,0,3,3,0.3500,0.1600,-0.0500,-2.0000,1.5625,-1.0625,0.13635253906250,0.65753173828125,0.15393066406250,-0.72479248046875,stop
198.78,3,0,3,3,0.1600,0.0700,0.1200,-0.6250,3.1250,-0.3750,0.13635253906250,0.65771484375000,0.15399169921875,-0.72460937500000,stop
198.79,3,0,3,3,0.0600,0.0100,0.1800,0.8750,4.3750,0.5625,0.13629150390625,0.65802001953125,0.15393066406250,-0.72436523437500,stop
198.80,3,0,3,3,0.0200,-0.0300,0.2800,2.0000,4.8125,1.0625,0.13623046875000,0.65838623046875,0.15380859375000,-0.72412109375000,stop
198.81,3,0,3,3,0.1000,0.0000,0.4200,1.8750,4.2500,0.9375,0.13610839843750,0.65869140625000,0.15368652343750,-0.72387695312500,stop
198.82,3,0,3,3,0.1500,0.0200,0.4200,0.9375,3.6875,0.3750,0.13598632812500,0.65893554687500,0.15362548828125,-0.72369384765625,stop
198.83,3,0,3,3,0.1500,0.0700,0.4200,0.8750,2.5625,0.1875,0.13592529296875,0.65911865234375,0.15362548828125,-0.72357177734375,stop
198.84,3,0,3,3,0.1500,0.1000,0.3800,1.1250,1.4375,0.1250,0.13586425781250,0.65917968750000,0.15356445312500,-0.72351074218750,stop
198.85,3,0,3,3,0.1100,0.0900,0.4100,0.8750,0.7500,0.1875,0.13580322265625,0.65924072265625,0.15350341796875,-0.72344970703125,stop
198.86,3,0,3,3,0.1400,0.0400,0.4000,0.0625,0.5625,0.0000,0.13586425781250,0.65905761718750,0.15344238281250,-0.72363281250000,stop
198.87,3,0,3,3,0.1800,0.0400,0.3800,-0.3750,-0.0625,-0.3125,0.13592529296875,0.65887451171875,0.15332031250000,-0.72381591796875,stop
198.88,3,0,3,3,0.2200,0.0500,0.3600,-1.2500,-1.3125,-0.7500,0.13598632812500,0.65856933593750,0.15338134765625,-0.72406005859375,stop
198.89,3,0,3,3,0.1600,0.0800,0.2400,-2.0000,-2.0625,-1.0000,0.13616943359375,0.65826416015625,0.15344238281250,-0.72430419921875,stop
198.90,3,0,3,3,0.1300,0.0800,0.1800,-2.5625,-2.0625,-1.2500,0.13629150390625,0.65795898437500,0.15362548828125,-0.72448730468750,stop
198.91,3,0,3,3,0.1400,0.1100,0.1900,-2.4375,-1.6250,-1.1875,0.13641357421875,0.65771484375000,0.15374755859375,-0.72467041015625,stop
198.92,3,0,3,3,0.1800,0.1500,0.1900,-2.0000,-1.1875,-0.8125,0.13653564453125,0.65759277343750,0.15386962890625,-0.72479248046875,stop
198.93,3,0,3,3,0.2000,0.0700,0.1200,-2.0000,-0.8750,-0.8125,0.13665771484375,0.65740966796875,0.15399169921875,-0.72485351562500,stop
198.94,3,0,3,3,0.2600,0.0500,0.0900,-1.9375,-1.0625,-0.8125,0.13677978515625,0.65728759765625,0.15411376953125,-0.72491455078125,stop
198.95,3,0,3,3,0.2700,0.0600,0.1100,-1.6875,-0.7500,-0.8750,0.13684082031250,0.65716552734375,0.15423583984375,-0.72497558593750,stop
198.96,3,0,3,3,0.2700,0.1100,0.1500,-1.5625,-0.3750,-0.6875,0.13690185546875,0.65710449218750,0.15435791015625,-0.72503662109375,stop
198.97,3,0,3,3,0.2300,0.1500,0.1000,-1.1875,0.0000,-0.3750,0.13702392578125,0.65704345703125,0.15441894531250,-0.72503662109375,stop
198.98,3,0,3,3,0.2200,0.1100,0.1200,-0.6875,0.0000,0.0000,0.13708496093750,0.65704345703125,0.15441894531250,-0.72503662109375,stop
198.99,3,0,3,3,0.2400,0.0900,0.0900,-0.4375,0.2500,0.0000,0.13714599609375,0.65698242187500,0.15435791015625,-0.72509765625000,stop
199.00,3,0,3,3,0.1800,0.0300,0.1800,-0.1875,0.4375,0.0000,0.13714599609375,0.65692138671875,0.15435791015625,-0.72509765625000,stop
199.01,3,0,3,3,0.1200,-0.0100,0.2200,-0.0625,0.4375,0.0625,0.13714599609375,0.65692138671875,0.15429687500000,-0.72515869140625,stop
199.02,3,0,3,3,0.1700,-0.0400,0.2000,-0.2500,0.0000,0.0000,0.13714599609375,0.65686035156250,0.15429687500000,-0.72521972656250,stop
199.03,3,0,3,3,0.1800,-0.0800,0.1800,-0.1250,-0.4375,0.0000,0.13714599609375,0.65679931640625,0.15429687500000,-0.72528076171875,stop
199.04,3,0,3,3,0.2100,-0.0700,0.0500,0.0625,-0.6875,0.0000,0.13720703125000,0.65673828125000,0.15429687500000,-0.72534179687500,stop
199.05,3,0,3,3,0.2900,-0.0400,0.0000,0.6250,-1.3750,-0.3750,0.13714599609375,0.65661621093750,0.15423583984375,-0.72546386718750,stop
199.06,3,0,3,3,0.3200,0.0000,-0.0200,1.0625,-1.4375,-0.6875,0.13708496093750,0.65649414062500,0.15417480468750,-0.72552490234375,stop
199.07,3,0,3,3,0.2700,0.0100,-0.0600,1.7500,-0.6250,-0.5625,0.13696289062500,0.65649414062500,0.15411376953125,-0.72564697265625,stop
199.08,3,0,3,3,0.2100,0.0300,-0.0900,2.3750,0.3750,-0.5000,0.13677978515625,0.65649414062500,0.15393066406250,-0.72564697265625,stop
199.09,3,0,3,3,0.2500,0.0600,-0.0500,2.9375,1.3750,0.0000,0.13659667968750,0.65661621093750,0.15374755859375,-0.72558593750000,stop
199.10,3,0,3,3,0.2300,0.0900,0.0000,3.6250,2.3125,0.0625,0.13641357421875,0.65679931640625,0.15356445312500,-0.72552490234375,stop
199.11,3,0,3,3,0.2800,0.1100,0.0400,4.3125,2.7500,0.4375,0.13610839843750,0.65704345703125,0.15332031250000,-0.72540283203125,stop
199.12,3,0,3,3,0.2800,0.1100,0.0700,4.6875,3.3125,0.6875,0.13586425781250,0.65734863281250,0.15301513671875,-0.72528076171875,stop
199.13,3,0,3,3,0.2800,0.0900,0.1200,4.5625,3.8750,0.6875,0.13562011718750,0.65759277343750,0.15270996093750,-0.72515869140625,stop
199.14,3,0,3,3,0.2800,0.1000,0.0900,4.5625,4.0000,0.7500,0.13537597656250,0.65789794921875,0.15234375000000,-0.72497558593750,stop
199.15,3,0,3,3,0.2200,0.0600,0.1500,4.1250,3.8125,0.5000,0.13507080078125,0.65820312500000,0.15209960937500,-0.72485351562500,stop
199.16,3,0,3,3,0.1900,0.0300,0.1800,3.6875,3.4375,0.1875,0.13488769531250,0.65838623046875,0.15191650390625,-0.72473144531250,stop
199.17,3,0,3,3,0.1900,0.0000,0.1500,2.9375,3.1875,-0.2500,0.13464355468750,0.65856933593750,0.15173339843750,-0.72460937500000,stop
199.18,3,0,3,3,0.1500,0.0000,0.1900,1.8125,2.1875,-0.6875,0.13452148437500,0.65869140625000,0.15167236328125,-0.72460937500000,stop
199.19,3,0,3,3,0.1700,0.0600,0.1000,1.1875,1.2500,-0.9375,0.13433837890625,0.65875244140625,0.15167236328125,-0.72460937500000,stop
199.20,3,0,3,3,0.1700,0.0900,0.1000,0.8125,1.0000,-1.1250,0.13421630859375,0.65875244140625,0.15167236328125,-0.72454833984375,stop
199.21,3,0,3,3,0.2000,0.0800,0.0600,0.8125,1.3750,-1.0000,0.13415527343750,0.65881347656250,0.15167236328125,-0.72454833984375,stop
199.22,3,0,3,3,0.2200,0.0700,0.0300,0.8750,1.9375,-1.1250,0.13397216796875,0.65893554687500,0.15167236328125,-0.72448730468750,stop
199.23,3,0,3,3,0.2500,0.0900,0.0400,1.0000,2.2500,-1.0625,0.13385009765625,0.65905761718750,0.15167236328125,-0.72436523437500,stop
199.24,3,0,3,3,0.2300,0.0900,0.0100,0.6875,2.4375,-1.1875,0.13372802734375,0.65917968750000,0.15173339843750,-0.72424316406250,stop
199.25,3,0,3,3,0.2500,0.0600,0.0000,0.0000,2.4375,-1.5625,0.13360595703125,0.65930175781250,0.15179443359375,-0.72412109375000,stop
199.26,3,0,3,3,0.2300,0.0400,0.0000,-0.2500,2.3750,-1.6875,0.13342285156250,0.65942382812500,0.15191650390625,-0.72406005859375,stop
199.27,3,0,3,3,0.1600,0.0200,0.0200,0.0000,2.6875,-1.6875,0.13330078125000,0.65960693359375,0.15203857421875,-0.72387695312500,stop
199.28,3,0,3,3,0.1400,0.0400,0.0200,0.4375,3.1875,-1.5000,0.13317871093750,0.65979003906250,0.15216064453125,-0.72375488281250,stop
199.29,3,0,3,3,0.1500,0.0700,0.0300,0.9375,3.9375,-1.1875,0.13299560546875,0.66003417968750,0.15222167968750,-0.72357177734375,stop
199.30,3,0,3,3,0.1400,0.0900,0.0800,1.3125,3.6250,-1.0000,0.13281250000000,0.66021728515625,0.15222167968750,-0.72338867187500,stop
199.31,3,0,3,3,0.1800,0.0600,0.1000,1.3125,3.1250,-1.0000,0.13262939453125,0.66040039062500,0.15222167968750,-0.72320556640625,stop
199.32,3,0,3,3,0.2100,0.0500,0.1300,1.2500,2.5625,-1.1875,0.13250732421875,0.66058349609375,0.15222167968750,-0.72314453125000,stop
199.33,3,0,3,3,0.2000,0.0400,0.1200,1.0625,1.7500,-1.6250,0.13232421875000,0.66064453125000,0.15222167968750,-0.72308349609375,stop
199.34,3,0,3,3,0.2000,0.0600,0.0700,0.8750,1.5625,-1.6250,0.13214111328125,0.66070556640625,0.15228271484375,-0.72308349609375,stop
199.35,3,0,3,3,0.2100,0.0900,0.1000,0.9375,1.5000,-1.5625,0.13201904296875,0.66076660156250,0.15228271484375,-0.72302246093750,stop
199.36,3,0,3,3,0.2000,0.1000,0.0800,0.9375,1.7500,-1.1875,0.13183593750000,0.66082763671875,0.15234375000000,-0.72296142578125,stop
199.37,3,0,3,3,0.2100,0.1400,0.0700,1.0000,1.8750,-0.9375,0.13171386718750,0.66094970703125,0.15228271484375,-0.72290039062500,stop
199.38,3,0,3,3,0.1900,0.1400,0.0200,1.1250,2.0625,-0.6250,0.13159179687500,0.66107177734375,0.15228271484375,-0.72283935546875,stop
199.39,3,0,3,3,0.2400,0.1400,0.0400,1.3125,2.1875,-0.6875,0.13146972656250,0.66119384765625,0.15222167968750,-0.72271728515625,stop
199.40,3,0,3,3,0.2400,0.1500,0.0700,1.3125,2.1250,-0.7500,0.13134765625000,0.66131591796875,0.15216064453125,-0.72265625000000,stop
199.41,3,0,3,3,0.2500,0.1500,0.0700,1.3125,2.2500,-0.7500,0.13122558593750,0.66149902343750,0.15216064453125,-0.72253417968750,stop
199.42,3,0,3,3,0.1400,0.1900,0.1000,1.4375,2.4375,-0.6250,0.13110351562500,0.66162109375000,0.15203857421875,-0.72247314453125,stop
199.43,3,0,3,3,0.0900,0.1800,0.1100,1.7500,2.7500,-0.3750,0.13104248046875,0.66180419921875,0.15191650390625,-0.72235107421875,stop
199.44,3,0,3,3,0.1000,0.2000,0.1200,1.8125,2.8750,-0.1250,0.13092041015625,0.66198730468750,0.15179443359375,-0.72222900390625,stop
199.45,3,0,3,3,0.1100,0.1400,0.1600,1.3750,2.8750,-0.1250,0.13085937500000,0.66217041015625,0.15167236328125,-0.72210693359375,stop
199.46,3,0,3,3,0.1800,0.1500,0.1500,0.9375,2.3750,-0.4375,0.13079833984375,0.66229248046875,0.15161132812500,-0.72198486328125,stop
199.47,3,0,3,3,0.2500,0.1600,0.1600,0.0625,1.2500,-0.8125,0.13079833984375,0.66229248046875,0.15161132812500,-0.72198486328125,stop
199.48,3,0,3,3,0.2500,0.1800,0.1400,-0.5000,0.6875,-1.2500,0.13079833984375,0.66229248046875,0.15161132812500,-0.72198486328125,stop
199.49,3,0,3,3,0.1900,0.2000,0.0000,-0.8750,0.3750,-1.1250,0.13079833984375,0.66223144531250,0.15167236328125,-0.72204589843750,stop
199.50,3,0,3,3,0.1900,0.2400,-0.0200,-0.6250,0.5625,-0.7500,0.13079833984375,0.66223144531250,0.15173339843750,-0.72198486328125,stop
199.51,3,0,3,3,0.1700,0.2500,-0.0200,-0.0625,1.5625,-0.2500,0.13085937500000,0.66235351562500,0.15167236328125,-0.72192382812500,stop
199.52,3,0,3,3,0.1700,0.2300,0.0200,0.1875,2.9375,0.0000,0.13085937500000,0.66253662109375,0.15167236328125,-0.72174072265625,stop
199.53,3,0,3,3,0.1400,0.1800,0.1300,0.1875,3.5625,0.1875,0.13085937500000,0.66278076171875,0.15161132812500,-0.72155761718750,stop
199.54,3,0,3,3,0.1800,0.1600,0.1700,0.3125,4.1250,0.1875,0.13085937500000,0.66302490234375,0.15161132812500,-0.72131347656250,stop
199.55,3,0,3,3,0.1700,0.1300,0.2300,0.3750,3.6250,0.0000,0.13092041015625,0.66320800781250,0.15161132812500,-0.72113037109375,stop
199.56,3,0,3,3,0.1400,0.0700,0.2400,0.5000,3.0625,-0.2500,0.13092041015625,0.66333007812500,0.15155029296875,-0.72106933593750,stop
199.57,3,0,3,3,0.1600,0.0400,0.1700,0.7500,2.5625,-0.5625,0.13085937500000,0.66339111328125,0.15155029296875,-0.72094726562500,stop
199.58,3,0,3,3,0.1800,0.0000,0.1200,0.7500,0.8125,-0.8750,0.13073730468750,0.66339111328125,0.15155029296875,-0.72100830078125,stop
199.59,3,0,3,3,0.2000,0.0300,0.0500,0.0000,-0.5625,-1.2500,0.13067626953125,0.66333007812500,0.15161132812500,-0.72106933593750,stop
199.60,3,0,3,3,0.1800,0.0900,-0.0100,-0.9375,-0.7500,-1.5000,0.13067626953125,0.66326904296875,0.15173339843750,-0.72113037109375,stop
199.61,3,0,3,3,0.1500,0.2100,-0.0900,-1.5625,-0.3750,-1.8125,0.13067626953125,0.66320800781250,0.15191650390625,-0.72113037109375,stop
199.62,3,0,3,3,0.1500,0.3200,-0.1600,-1.4375,0.4375,-2.3750,0.13067626953125,0.66320800781250,0.15203857421875,-0.72106933593750,stop
199.63,3,0,3,3,0.1300,0.4500,-0.2000,-0.7500,2.0625,-2.6250,0.13049316406250,0.66326904296875,0.15228271484375,-0.72100830078125,stop
199.64,3,0,3,3,0.1400,0.6100,-0.2500,-0.3750,4.1875,-2.6250,0.13031005859375,0.66351318359375,0.15246582031250,-0.72076416015625,stop
199.65,3,0,3,3,0.0800,0.7600,-0.1700,-0.5000,6.3125,-2.9375,0.13000488281250,0.66387939453125,0.15270996093750,-0.72045898437500,stop
199.66,3,0,3,3,0.1400,0.8800,-0.1400,-1.0625,8.3125,-2.8750,0.12982177734375,0.66430664062500,0.15307617187500,-0.71997070312500,stop
199.67,3,0,3,3,0.2600,0.9900,-0.0100,-0.8125,10.5000,-2.6250,0.12951660156250,0.66497802734375,0.15338134765625,-0.71942138671875,stop
199.68,3,0,3,3,0.4200,1.5200,0.1600,0.6875,11.6875,-2.0000,0.12921142578125,0.66564941406250,0.15356445312500,-0.71875000000000,stop
199.69,3,0,3,3,0.4200,1.5200,0.1600,0.6875,11.6875,-2.0000,0.12921142578125,0.66564941406250,0.15356445312500,-0.71875000000000,stop
199.69,3,0,3,3,0.4300,1.8800,0.2800,2.1875,12.5000,-0.7500,0.12890625000000,0.66644287109375,0.15362548828125,-0.71807861328125,stop
199.70,3,0,3,3,0.4000,2.2600,0.3600,3.3125,12.4375,0.5000,0.12854003906250,0.66729736328125,0.15350341796875,-0.71740722656250,stop
199.71,3,0,3,3,0.3900,2.5600,0.4100,3.5000,9.3125,1.8750,0.12835693359375,0.66790771484375,0.15332031250000,-0.71685791015625,stop
199.72,3,0,3,3,0.0000,2.9200,0.3300,2.9375,4.1250,4.0000,0.12835693359375,0.66827392578125,0.15289306640625,-0.71661376953125,stop
199.73,3,0,3,3,-0.3200,3.1500,0.2300,0.6250,-0.8125,7.5625,0.12884521484375,0.66833496093750,0.15240478515625,-0.71661376953125,stop
199.75,3,0,3,3,-0.5800,3.3400,0.1300,-4.6875,-4.2500,11.8750,0.12988281250000,0.66815185546875,0.15191650390625,-0.71667480468750,moving
199.76,3,0,3,3,-0.7000,3.5300,0.1200,-8.9375,-3.6250,16.2500,0.13153076171875,0.66802978515625,0.15148925781250,-0.71655273437500,moving
199.77,3,0,3,3,-0.9600,3.9000,0.2100,-10.2500,-0.6875,21.6875,0.13348388671875,0.66815185546875,0.15081787109375,-0.71624755859375,moving
199.78,3,0,3,3,-1.0200,3.9500,0.2300,-11.4375,0.4375,27.8750,0.13592529296875,0.66839599609375,0.14990234375000,-0.71575927734375,moving
199.79,3,0,3,3,-0.8300,3.8700,0.2200,-12.4375,-1.2500,35.4375,0.13891601562500,0.66864013671875,0.14855957031250,-0.71520996093750,moving
199.80,3,0,3,3,-0.4800,3.7200,0.1600,-11.4375,-7.4375,43.6875,0.14245605468750,0.66857910156250,0.14660644531250,-0.71496582031250,moving
199.81,3,0,3,3,0.2400,3.4800,0.0500,-11.8125,-16.8125,52.0625,0.14660644531250,0.66809082031250,0.14410400390625,-0.71514892578125,moving
199.82,3,0,3,3,0.5600,3.2800,-0.1700,-12.0625,-23.8750,59.8750,0.15136718750000,0.66717529296875,0.14099121093750,-0.71563720703125,moving
199.83,3,0,3,3,0.9600,3.0300,-0.3600,-11.2500,-29.7500,67.0000,0.15661621093750,0.66595458984375,0.13739013671875,-0.71630859375000,moving
199.84,3,0,3,3,1.5500,2.4400,-0.6500,-10.2500,-35.4375,74.1875,0.16229248046875,0.66448974609375,0.13317871093750,-0.71722412109375,moving
199.85,3,0,3,3,1.9000,1.9500,-0.8000,-8.3125,-37.7500,81.2500,0.16833496093750,0.66290283203125,0.12841796875000,-0.71813964843750,moving
199.86,3,0,3,3,2.0800,1.3000,-0.8700,-4.2500,-38.3125,87.8750,0.17456054687500,0.66143798828125,0.12298583984375,-0.71899414062500,moving
199.87,3,0,3,3,2.0300,0.9200,-1.1200,3.1875,-45.1250,95.6250,0.18084716796875,0.65966796875000,0.11657714843750,-0.72009277343750,moving
199.88,3,0,3,3,2.4600,0.0900,-0.1100,10.1250,-60.1250,101.4375,0.18731689453125,0.65704345703125,0.10906982421875,-0.72204589843750,moving
199.89,3,0,3,3,2.4000,-0.3200,0.0600,6.1875,-61.3125,103.1250,0.19403076171875,0.65423583984375,0.10174560546875,-0.72387695312500,moving
199.90,3,0,3,3,2.0000,-1.1300,-0.1700,-10.6250,-43.6875,101.1875,0.20141601562500,0.65216064453125,0.09588623046875,-0.72454833984375,moving
199.91,3,0,3,3,1.5000,-2.0300,-0.5100,-24.5625,-24.5625,97.2500,0.20922851562500,0.65093994140625,0.09143066406250,-0.72399902343750,moving
199.92,3,0,3,3,1.0100,-3.1700,-0.8400,-30.3125,-16.3750,92.2500,0.21691894531250,0.65008544921875,0.08776855468750,-0.72296142578125,moving
199.93,3,0,3,3,0.5600,-3.8100,-1.1400,-33.0625,-14.1250,85.5000,0.22430419921875,0.64916992187500,0.08465576171875,-0.72186279296875,moving
199.94,3,0,3,3,0.1700,-4.6800,-1.7000,-36.9375,-14.3750,75.3750,0.23126220703125,0.64813232421875,0.08239746093750,-0.72088623046875,moving
199.95,3,0,3,3,-0.1900,-5.6400,-2.4100,-37.3125,-17.3125,62.3125,0.23742675781250,0.64672851562500,0.08087158203125,-0.72033691406250,moving
199.96,3,0,3,3,-0.6400,-7.5300,-3.5000,-30.8125,-20.7500,49.3125,0.24243164062500,0.64508056640625,0.07958984375000,-0.72021484375000,moving
199.96,3,0,3,3,-0.6400,-7.5300,-3.5000,-30.8125,-20.7500,49.3125,0.24243164062500,0.64508056640625,0.07958984375000,-0.72021484375000,moving
199.97,3,0,3,3,-0.5100,-8.1800,-3.7500,-20.0625,-19.7500,39.8125,0.24621582031250,0.64373779296875,0.07818603515625,-0.72033691406250,moving
199.98,3,0,3,3,-0.1400,-8.4900,-3.8700,-7.7500,-13.4375,34.0000,0.24890136718750,0.64294433593750,0.07647705078125,-0.72033691406250,moving
199.99,3,0,3,3,0.1500,-8.6800,-4.1500,8.3125,3.5625,26.4375,0.25006103515625,0.64349365234375,0.07452392578125,-0.71960449218750,moving
200.00,3,0,3,3,0.6200,-8.4600,-4.6900,32.5000,21.0000,16.4375,0.24908447265625,0.64569091796875,0.07202148437500,-0.71826171875000,moving
200.01,3,0,3,3,0.5100,-7.7400,-4.5500,58.6250,40.5000,4.8750,0.24584960937500,0.64953613281250,0.06896972656250,-0.71618652343750,moving
200.02,3,0,3,3,0.2400,-7.0400,-4.0400,72.1250,64.9375,-8.3125,0.24084472656250,0.65502929687500,0.06634521484375,-0.71307373046875,moving
200.03,3,0,3,3,-0.1400,-6.5000,-2.9100,61.3750,91.3750,-24.0000,0.23522949218750,0.66186523437500,0.06585693359375,-0.70867919921875,moving
200.04,3,0,3,3,-0.4500,-6.4700,-2.2300,34.3750,110.7500,-40.0625,0.23010253906250,0.66918945312500,0.06829833984375,-0.70324707031250,moving
200.05,3,0,3,3,-0.9900,-6.4400,-1.0600,16.0625,118.6875,-53.1875,0.22515869140625,0.67645263671875,0.07287597656250,-0.69744873046875,moving
200.06,3,0,3,3,-1.7700,-6.1500,0.2900,33.1875,127.4375,-59.3750,0.21868896484375,0.68444824218750,0.07684326171875,-0.69122314453125,moving
200.07,3,0,3,3,-1.7900,-5.4700,2.9700,89.5625,117.4375,-58.8125,0.20898437500000,0.69274902343750,0.07727050781250,-0.68585205078125,moving
200.08,3,0,3,3,-1.4500,-5.8300,4.2300,132.2500,76.9375,-66.5000,0.19641113281250,0.69927978515625,0.07482910156250,-0.68322753906250,moving
200.09,3,0,3,3,-1.2900,-5.5500,4.5500,137.9375,31.8750,-74.8125,0.18322753906250,0.70300292968750,0.07171630859375,-0.68341064453125,moving
200.10,3,0,3,3,-0.7600,-5.0900,3.7400,108.9375,14.3125,-89.0625,0.17114257812500,0.70501708984375,0.07098388671875,-0.68457031250000,moving
200.11,3,0,3,3,-0.5600,-4.4300,1.5800,80.0000,0.5625,-110.2500,0.15954589843750,0.70550537109375,0.07305908203125,-0.68664550781250,moving
200.12,3,0,3,3,-0.5300,-3.8100,1.0100,66.2500,-17.3125,-124.0625,0.14807128906250,0.70452880859375,0.07653808593750,-0.68981933593750,moving
200.13,3,0,3,3,-0.5000,-2.7700,0.4300,60.1250,-25.8125,-133.1875,0.13647460937500,0.70281982421875,0.08081054687500,-0.69348144531250,moving
200.14,3,0,3,3,-0.5100,-1.3100,0.1100,55.1875,-26.3125,-138.1250,0.12487792968750,0.70080566406250,0.08563232421875,-0.69708251953125,moving
200.15,3,0,3,3,-0.7900,1.4300,-0.1200,45.0000,-30.1875,-138.8750,0.11383056640625,0.69836425781250,0.09112548828125,-0.70074462890625,moving
200.16,3,0,3,3,-0.9900,2.6100,-0.2700,30.1875,-35.5625,-139.6875,0.10363769531250,0.69531250000000,0.09747314453125,-0.70446777343750,moving
200.17,3,0,3,3,-1.5200,3.6500,-0.4800,18.0625,-34.1250,-137.3125,0.09436035156250,0.69213867187500,0.10443115234375,-0.70788574218750,moving
200.18,3,0,3,3,-2.2300,5.1400,-0.5800,4.8750,-33.1875,-122.9375,0.08673095703125,0.68896484375000,0.11132812500000,-0.71093750000000,moving
200.19,3,0,3,3,-3.3900,8.4900,0.0900,0.0000,-29.1875,-99.2500,0.08081054687500,0.68615722656250,0.11712646484375,-0.71337890625000,moving
200.20,3,0,3,3,-3.7600,10.5700,-0.1600,13.0000,-7.2500,-67.0625,0.07586669921875,0.68511962890625,0.12030029296875,-0.71441650390625,moving
200.21,3,0,3,3,-4.3300,12.3700,0.0300,28.3750,22.3750,-35.6250,0.07171630859375,0.68627929687500,0.12084960937500,-0.71362304687500,moving
200.22,3,0,3,3,-4.7800,15.9000,0.2300,27.4375,34.5625,-14.3750,0.06878662109375,0.68847656250000,0.12023925781250,-0.71191406250000,moving
200.23,3,0,3,3,-4.7800,15.9000,0.2300,27.4375,34.5625,-14.3750,0.06878662109375,0.68847656250000,0.12023925781250,-0.71191406250000,moving
200.23,3,0,3,3,-3.1400,15.9600,0.3800,32.8750,35.5625,-12.7500,0.06561279296875,0.69073486328125,0.11914062500000,-0.71020507812500,moving
200.24,3,0,3,3,-0.7000,14.5200,1.4600,40.3125,-0.4375,-20.0625,0.06195068359375,0.69073486328125,0.11785888671875,-0.71075439453125,moving
200.24,3,0,3,3,0.7800,9.8400,2.7700,52.2500,-43.9375,-20.3750,0.05798339843750,0.68811035156250,0.11560058593750,-0.71398925781250,moving
200.25,3,0,3,3,-0.6300,6.1300,3.7200,38.1250,-34.3125,-1.8125,0.05596923828125,0.68609619140625,0.11315917968750,-0.71643066406250,moving
200.26,3,0,3,3,-2.0800,5.8500,2.9900,5.1250,11.7500,19.5625,0.05676269531250,0.68707275390625,0.11169433593750,-0.71569824218750,moving
200.27,3,0,3,2,-3.6600,5.8500,2.0100,-28.9375,44.7500,36.0000,0.06036376953125,0.69006347656250,0.11151123046875,-0.71258544921875,moving
200.28,3,0,3,2,-4.2100,6.3600,1.4000,-48.6250,42.6875,48.8750,0.06591796875000,0.69293212890625,0.11181640625000,-0.70922851562500,moving
200.29,3,0,3,2,-3.3900,7.3000,0.9800,-63.6875,20.8750,59.3750,0.07330322265625,0.69439697265625,0.11224365234375,-0.70703125000000,moving
200.30,3,0,3,2,-2.6400,7.3000,1.0500,-80.9375,2.1250,66.8125,0.08233642578125,0.69464111328125,0.11315917968750,-0.70562744140625,moving
200.31,3,0,3,2,-2.3200,7.1500,0.9700,-86.8125,0.1875,74.7500,0.09222412109375,0.69470214843750,0.11389160156250,-0.70422363281250,moving
200.32,3,0,3,2,-2.2900,6.8600,0.9900,-84.3750,1.4375,83.6250,0.10253906250000,0.69488525390625,0.11395263671875,-0.70257568359375,moving
200.33,3,0,3,2,-2.4700,5.5200,1.1400,-82.1875,-2.5625,92.1875,0.11322021484375,0.69488525390625,0.11334228515625,-0.70104980468750,moving
200.34,3,0,3,2,-2.5300,4.3000,1.2500,-83.0000,-4.9375,99.6250,0.12445068359375,0.69470214843750,0.11224365234375,-0.69952392578125,moving
200.35,3,0,3,2,-2.6500,2.9500,1.4500,-83.5625,-7.9375,103.8750,0.13598632812500,0.69427490234375,0.11090087890625,-0.69799804687500,moving
200.36,3,0,3,2,-2.6000,0.7100,1.5900,-83.3125,-12.4375,104.0000,0.14752197265625,0.69348144531250,0.10943603515625,-0.69665527343750,moving
200.37,3,0,3,2,-2.4000,-0.4300,1.6100,-86.0625,-20.3750,103.1250,0.15924072265625,0.69201660156250,0.10815429687500,-0.69573974609375,moving
200.38,3,0,3,2,-2.3100,-1.4900,1.3000,-92.5625,-33.4375,100.3125,0.17132568359375,0.68957519531250,0.10717773437500,-0.69543457031250,moving
200.39,3,0,3,2,-2.3900,-2.6800,0.9800,-108.7500,-53.6875,92.8125,0.18402099609375,0.68548583984375,0.10729980468750,-0.69622802734375,moving
200.40,3,0,3,2,-1.8400,-5.0500,0.1900,-124.0000,-71.9375,86.4375,0.19738769531250,0.67987060546875,0.10845947265625,-0.69787597656250,moving
200.41,3,0,3,2,-1.0000,-5.9200,-0.3700,-121.0000,-85.8750,83.3125,0.21051025390625,0.67327880859375,0.10931396484375,-0.70031738281250,moving
200.42,3,0,3,2,0.0000,-6.5500,-0.8900,-113.2500,-95.0625,84.6875,0.22320556640625,0.66607666015625,0.10949707031250,-0.70324707031250,moving
200.43,3,0,3,2,0.8300,-7.0000,-1.4400,-110.0625,-93.6250,81.3750,0.23553466796875,0.65887451171875,0.10961914062500,-0.70599365234375,moving
200.44,3,0,3,2,1.1700,-8.6700,-3.4200,-107.3125,-71.6875,73.5000,0.24694824218750,0.65289306640625,0.11047363281250,-0.70751953125000,moving
200.45,3,0,3,2,0.9800,-9.7600,-4.8900,-97.5625,-37.2500,59.1875,0.25653076171875,0.64898681640625,0.11230468750000,-0.70739746093750,moving
200.46,3,0,3,2,1.3200,-11.4600,-5.7200,-71.5625,-7.0000,40.0000,0.26312255859375,0.64733886718750,0.11425781250000,-0.70617675781250,moving
200.47,3,0,3,2,1.3200,-11.4600,-5.7200,-71.5625,-7.0000,40.0000,0.26312255859375,0.64733886718750,0.11425781250000,-0.70617675781250,moving
200.47,3,0,3,2,1.3900,-12.3500,-6.9500,-18.6875,19.3750,26.1250,0.26556396484375,0.64831542968750,0.11437988281250,-0.70428466796875,moving
200.48,3,0,3,2,1.4500,-14.2600,-9.0200,58.1875,28.9375,19.0625,0.26318359375000,0.65161132812500,0.11041259765625,-0.70281982421875,moving
200.49,3,0,3,2,2.0200,-12.5300,-8.7700,147.6250,16.6250,21.3750,0.25592041015625,0.65618896484375,0.10052490234375,-0.70269775390625,moving
200.50,3,0,3,2,2.1800,-10.7100,-7.1000,210.5000,-3.9375,19.6875,0.24505615234375,0.66070556640625,0.08642578125000,-0.70422363281250,moving
200.51,3,0,3,2,2.6700,-8.9900,-5.1200,198.8750,-7.3750,4.2500,0.23382568359375,0.66442871093750,0.07379150390625,-0.70599365234375,moving
200.52,3,0,3,2,3.1000,-6.8500,-2.8500,139.0625,9.3750,-15.3750,0.22473144531250,0.66772460937500,0.06634521484375,-0.70660400390625,moving
200.53,3,0,3,2,3.1000,-6.3000,-2.2500,74.1875,35.3125,-36.0000,0.21795654296875,0.67114257812500,0.06457519531250,-0.70562744140625,moving
200.54,3,0,3,2,3.1200,-6.0300,-1.7900,16.4375,60.8125,-57.9375,0.21301269531250,0.67486572265625,0.06817626953125,-0.70324707031250,moving
200.55,3,0,3,2,2.2300,-5.6100,-1.4200,-27.2500,78.1875,-78.5000,0.20928955078125,0.67864990234375,0.07598876953125,-0.69989013671875,moving
200.56,3,0,3,2,1.3300,-5.0000,-0.9200,-48.8125,81.0625,-93.5625,0.20587158203125,0.68200683593750,0.08599853515625,-0.69647216796875,moving
200.57,3,0,3,2,0.5700,-4.1900,-0.1000,-38.5000,70.1250,-103.6250,0.20129394531250,0.68481445312500,0.09582519531250,-0.69378662109375,moving
200.58,3,0,3,2,-0.9200,-3.2400,0.5000,-5.8125,49.9375,-107.2500,0.19464111328125,0.68676757812500,0.10351562500000,-0.69262695312500,moving
200.59,3,0,3,2,-1.7500,-1.7400,2.3900,40.2500,18.6875,-103.7500,0.18572998046875,0.68762207031250,0.10766601562500,-0.69360351562500,moving
200.60,3,0,3,2,-0.9100,-1.4800,2.9600,98.3125,0.6875,-98.4375,0.17382812500000,0.68829345703125,0.10766601562500,-0.69604492187500,moving
200.61,3,0,3,2,-0.4300,-1.8000,2.5600,132.8125,2.5000,-103.3750,0.15948486328125,0.68939208984375,0.10589599609375,-0.69860839843750,moving
200.62,3,0,3,2,0.3400,-1.9900,2.1100,130.1875,7.1250,-111.2500,0.14471435546875,0.69055175781250,0.10479736328125,-0.70086669921875,moving
200.63,3,0,3,2,0.4400,-1.2400,0.2200,114.4375,5.4375,-118.7500,0.13043212890625,0.69116210937500,0.10504150390625,-0.70300292968750,moving
200.64,3,0,3,2,0.4000,-0.1200,-0.0200,103.5625,-5.5000,-121.6875,0.11676025390625,0.69079589843750,0.10601806640625,-0.70562744140625,moving
200.65,3,0,3,2,0.2500,1.0400,-0.0200,86.6250,-16.5000,-121.6875,0.10412597656250,0.68945312500000,0.10791015625000,-0.70861816406250,moving
200.66,3,0,3,2,0.0200,2.1100,-0.0300,64.4375,-25.5625,-120.8750,0.09295654296875,0.68731689453125,0.11102294921875,-0.71179199218750,moving
200.67,3,0,3,2,-1.2500,4.8500,-0.4100,42.6250,-24.0000,-114.2500,0.08349609375000,0.68499755859375,0.11505126953125,-0.71453857421875,moving
200.68,3,0,3,2,-2.2500,6.3600,-0.7900,14.8750,-16.8125,-102.7500,0.07629394531250,0.68298339843750,0.12017822265625,-0.71643066406250,moving
200.69,3,0,3,2,-3.8500,8.7000,-0.9900,-19.8125,-14.0000,-80.5000,0.07257080078125,0.68109130859375,0.12615966796875,-0.71759033203125,moving
200.70,3,0,3,2,-5.4900,12.9300,-1.2100,-42.6250,-10.2500,-44.3750,0.07238769531250,0.67968750000000,0.13140869140625,-0.71801757812500,moving
200.71,3,0,3,2,-5.8600,17.2600,-1.6200,-41.0625,5.8750,-12.1250,0.07397460937500,0.67962646484375,0.13476562500000,-0.71722412109375,moving
200.72,3,0,3,2,-5.9000,19.2500,-1.1800,-30.6875,17.5625,14.9375,0.07653808593750,0.68072509765625,0.13592529296875,-0.71575927734375,moving
200.73,3,0,3,2,-4.1000,21.6800,-1.3000,-3.4375,25.2500,26.7500,0.07812500000000,0.68261718750000,0.13470458984375,-0.71398925781250,moving
200.74,3,0,3,2,1.3500,12.6500,1.0400,50.0000,2.1250,6.3125,0.07550048828125,0.68316650390625,0.13122558593750,-0.71441650390625,moving
200.75,3,0,3,2,1.2300,8.7300,2.8900,108.5000,-52.6875,2.4375,0.06982421875000,0.68054199218750,0.12396240234375,-0.71875000000000,moving
200.76,3,0,3,2,0.5500,6.5800,4.5600,110.1875,-39.6250,30.6875,0.06567382812500,0.67907714843750,0.11492919921875,-0.72204589843750,moving
200.77,3,0,3,2,-0.4400,5.5100,4.2300,60.8750,41.3125,52.8750,0.06500244140625,0.68249511718750,0.10815429687500,-0.71990966796875,moving
200.78,3,0,3,2,-3.7100,4.4200,2.1900,8.5625,109.7500,65.0000,0.06756591796875,0.69006347656250,0.10430908203125,-0.71301269531250,moving
200.79,3,0,3,2,-4.4100,4.6900,1.7100,-24.0625,117.0000,77.0000,0.07281494140625,0.69781494140625,0.10180664062500,-0.70526123046875,moving
200.80,3,0,3,2,-4.1500,4.9100,1.8400,-44.6250,67.5000,88.8750,0.08044433593750,0.70245361328125,0.09954833984375,-0.70013427734375,moving
200.81,3,0,3,2,-2.8500,5.1800,1.9400,-63.8125,10.0000,94.6250,0.09008789062500,0.70343017578125,0.09765625000000,-0.69824218750000,moving
200.82,3,0,3,2,-1.6200,4.7800,1.8600,-84.1875,-31.0625,97.7500,0.10150146484375,0.70159912109375,0.09649658203125,-0.69866943359375,moving
200.83,3,0,3,2,-1.1800,4.8600,1.5000,-103.8750,-43.4375,100.6250,0.11444091796875,0.69885253906250,0.09619140625000,-0.69946289062500,moving
200.84,3,0,3,2,-1.1400,4.8200,1.1500,-126.3125,-36.0625,105.3125,0.12890625000000,0.69616699218750,0.09704589843750,-0.69952392578125,moving
200.85,3,0,3,2,-1.3000,4.3200,0.6700,-133.8750,-18.0000,108.0000,0.14379882812500,0.69439697265625,0.09838867187500,-0.69818115234375,moving
200.86,3,0,3,2,-1.3500,2.1200,-0.1100,-119.4375,1.1875,116.0000,0.15814208984375,0.69390869140625,0.09857177734375,-0.69555664062500,moving
200.87,3,0,3,2,-1.6400,0.8500,-0.2800,-95.5625,0.7500,124.7500,0.17156982421875,0.69360351562500,0.09674072265625,-0.69287109375000,moving
200.88,3,0,3,2,-1.8600,-0.7500,-0.1900,-83.8750,-18.5000,123.1875,0.18426513671875,0.69219970703125,0.09405517578125,-0.69140625000000,moving
200.89,3,0,3,2,-1.4800,-4.2600,0.1400,-82.9375,-32.8750,115.5000,0.19653320312500,0.68975830078125,0.09149169921875,-0.69079589843750,moving
200.90,3,0,3,2,-0.8100,-5.9600,0.3000,-80.0000,-37.0000,107.1250,0.20819091796875,0.68695068359375,0.08911132812500,-0.69049072265625,moving
200.91,3,0,3,2,-0.2300,-7.7500,0.4300,-76.2500,-40.0625,92.4375,0.21862792968750,0.68383789062500,0.08740234375000,-0.69061279296875,moving
200.92,3,0,3,2,0.3700,-9.6000,0.4300,-72.4375,-56.8750,80.5000,0.22827148437500,0.67956542968750,0.08581542968750,-0.69189453125000,moving
200.93,3,0,3,2,1.4400,-10.0900,-0.7200,-81.9375,-88.1875,78.6250,0.23858642578125,0.67315673828125,0.08428955078125,-0.69488525390625,moving
200.94,3,0,3,2,1.4600,-11.6000,-1.5200,-105.5000,-116.0625,66.6875,0.24969482421875,0.66430664062500,0.08435058593750,-0.69946289062500,moving
200.95,3,0,3,2,1.1800,-13.2300,-2.9400,-111.3750,-98.5000,34.5625,0.25897216796875,0.65606689453125,0.08697509765625,-0.70355224609375,moving
200.96,3,0,3,2,-0.2700,-14.9000,-5.4100,-83.0000,-33.0625,10.8750,0.26464843750000,0.65222167968750,0.09069824218750,-0.70452880859375,moving
200.97,3,0,3,2,0.5800,-16.5300,-9.1400,-5.1250,18.5000,1.7500,0.26489257812500,0.65319824218750,0.09130859375000,-0.70343017578125,moving
200.98,3,0,3,2,1.3200,-13.4000,-9.4100,124.9375,39.8125,4.8125,0.25769042968750,0.65850830078125,0.08428955078125,-0.70202636718750,moving
200.99,3,0,3,2,0.7700,-11.1500,-7.0000,228.0625,7.8125,11.5625,0.24517822265625,0.66406250000000,0.06982421875000,-0.70281982421875,moving
201.00,3,0,3,2,0.7700,-11.1500,-7.0000,228.0625,7.8125,11.5625,0.24517822265625,0.66406250000000,0.06982421875000,-0.70281982421875,moving
201.00,3,0,3,2,1.1900,-10.1600,-4.4900,228.5625,-15.5625,0.4375,0.23199462890625,0.66790771484375,0.05554199218750,-0.70501708984375,moving
201.01,3,0,3,2,2.1100,-9.1100,-3.0300,160.7500,17.8750,-19.8125,0.22125244140625,0.67205810546875,0.04718017578125,-0.70507812500000,moving
201.02,3,0,3,2,2.7600,-8.7400,-2.5900,88.1250,50.5625,-41.8125,0.21325683593750,0.67669677734375,0.04522705078125,-0.70324707031250,moving
201.03,3,0,3,2,2.8800,-8.3800,-2.0500,33.0625,56.6875,-58.6250,0.20745849609375,0.68054199218750,0.04779052734375,-0.70111083984375,moving
201.04,3,0,3,2,2.6600,-7.5900,-1.2700,6.5625,49.7500,-76.7500,0.20208740234375,0.68334960937500,0.05285644531250,-0.69958496093750,moving
201.05,3,0,3,2,0.8300,-5.2600,0.8300,4.3750,35.2500,-90.3750,0.19610595703125,0.68518066406250,0.05865478515625,-0.69903564453125,moving
201.06,3,0,3,2,-0.8300,-4.3200,1.4600,21.6250,15.3125,-99.6875,0.18859863281250,0.68591308593750,0.06359863281250,-0.69995117187500,moving
201.07,3,0,3,2,-1.8300,-3.5800,1.7200,53.0625,10.3125,-100.4375,0.17913818359375,0.68682861328125,0.06665039062500,-0.70123291015625,moving
201.08,3,0,3,2,-1.8200,-2.3500,1.5200,98.8125,7.8125,-96.0625,0.16723632812500,0.68823242187500,0.06652832031250,-0.70281982421875,moving
201.09,3,0,3,2,-1.0500,-2.4400,1.0200,133.8750,-13.4375,-100.1875,0.15307617187500,0.68872070312500,0.06420898437500,-0.70581054687500,moving
201.10,3,0,3,2,-0.4600,-2.4400,0.2200,140.4375,-29.8125,-110.7500,0.13787841796875,0.68804931640625,0.06182861328125,-0.70977783203125,moving
201.11,3,0,3,2,-0.1500,-2.2300,-0.5300,123.6250,-34.6250,-120.3750,0.12310791015625,0.68664550781250,0.06103515625000,-0.71386718750000,moving
201.12,3,0,3,2,-0.3800,-0.9500,-1.2100,98.5625,-34.1875,-126.5000,0.10943603515625,0.68481445312500,0.06219482421875,-0.71777343750000,moving
201.13,3,0,3,2,-0.3700,0.0900,-1.1100,75.0625,-38.6875,-129.3750,0.09698486328125,0.68231201171875,0.06494140625000,-0.72167968750000,moving
201.14,3,0,3,2,-0.4800,1.3400,-1.0800,59.2500,-41.3125,-128.5000,0.08557128906250,0.67944335937500,0.06854248046875,-0.72552490234375,moving
201.15,3,0,3,2,-0.5600,2.6700,-0.8500,42.1250,-40.3125,-127.3750,0.07519531250000,0.67639160156250,0.07318115234375,-0.72906494140625,moving
201.16,3,0,3,2,-1.2700,5.4300,-0.4200,25.8125,-34.0625,-119.4375,0.06622314453125,0.67358398437500,0.07843017578125,-0.73199462890625,moving
201.17,3,0,3,2,-1.8700,7.1100,-0.3100,18.7500,-10.8125,-105.0625,0.05841064453125,0.67224121093750,0.08337402343750,-0.73333740234375,moving
201.18,3,0,3,2,-3.0100,9.2000,-0.8300,15.0000,33.0000,-91.5625,0.05139160156250,0.67370605468750,0.08801269531250,-0.73193359375000,moving
201.19,3,0,3,2,-3.8100,10.9400,-1.6400,4.1875,66.2500,-81.0000,0.04541015625000,0.67730712890625,0.09283447265625,-0.72839355468750,moving
201.20,3,0,3,2,-4.5200,13.8900,-2.4700,-17.1250,71.2500,-74.1875,0.04113769531250,0.68115234375000,0.09857177734375,-0.72430419921875,moving
201.21,3,0,3,2,-4.8400,14.8300,-2.4800,-30.1250,59.1875,-59.8125,0.03857421875000,0.68426513671875,0.10430908203125,-0.72070312500000,moving
201.22,3,0,3,2,-4.5100,16.4700,-2.4000,-33.5625,39.9375,-36.6250,0.03790283203125,0.68627929687500,0.10870361328125,-0.71813964843750,moving
201.23,3,0,3,2,-0.6500,16.5400,-1.8500,-18.6875,18.6875,-14.1250,0.03796386718750,0.68725585937500,0.11077880859375,-0.71691894531250,moving
201.24,3,0,3,2,0.6000,13.1100,-0.4600,24.1875,-16.0000,-8.0000,0.03619384765625,0.68627929687500,0.10968017578125,-0.71807861328125,moving
201.25,3,0,3,2,0.6600,9.0800,0.8600,66.8750,-32.9375,1.3125,0.03259277343750,0.68444824218750,0.10528564453125,-0.72070312500000,moving
201.26,3,0,3,2,0.6600,9.0800,0.8600,66.8750,-32.9375,1.3125,0.03259277343750,0.68444824218750,0.10528564453125,-0.72070312500000,moving
201.26,3,0,3,2,-0.3800,7.9000,1.8300,73.5625,-8.2500,24.6250,0.02984619140625,0.68432617187500,0.09918212890625,-0.72174072265625,moving
201.27,3,0,3,2,-2.7600,6.6100,1.8200,44.1250,38.3125,47.6875,0.02996826171875,0.68725585937500,0.09356689453125,-0.71972656250000,moving
201.28,3,0,3,2,-3.1500,5.6100,1.4700,8.9375,88.8750,61.5625,0.03259277343750,0.69335937500000,0.08953857421875,-0.71423339843750,moving
201.29,3,0,3,2,-2.9900,4.8900,1.7600,-16.0000,101.5625,74.7500,0.03747558593750,0.70019531250000,0.08624267578125,-0.70770263671875,moving
201.30,3,0,3,2,-2.5600,4.3600,2.2000,-31.3125,81.5000,86.1875,0.04412841796875,0.70574951171875,0.08312988281250,-0.70220947265625,moving
201.31,3,0,3,2,-1.8000,5.0200,2.5600,-44.4375,53.3125,93.8750,0.05224609375000,0.70947265625000,0.08020019531250,-0.69818115234375,moving
201.32,3,0,3,1,-1.7400,5.6100,2.6600,-56.9375,28.0000,98.3125,0.06164550781250,0.71160888671875,0.07769775390625,-0.69555664062500,moving
201.33,3,0,3,1,-1.6200,6.0300,2.6500,-71.1250,2.1875,101.5625,0.07226562500000,0.71197509765625,0.07562255859375,-0.69433593750000,moving
201.34,3,0,3,1,-1.4500,5.6000,2.6000,-91.5000,-23.6250,105.7500,0.08453369140625,0.71063232421875,0.07440185546875,-0.69451904296875,moving
201.35,3,0,3,1,-1.7000,5.0500,2.1600,-110.1875,-43.5625,111.0625,0.09844970703125,0.70782470703125,0.07379150390625,-0.69561767578125,moving
201.36,3,0,3,1,-2.1900,4.0500,1.4700,-123.8750,-52.8125,117.3125,0.11358642578125,0.70422363281250,0.07354736328125,-0.69696044921875,moving
201.37,3,0,3,1,-2.6700,2.8400,0.8300,-135.8125,-54.7500,123.3750,0.12982177734375,0.70019531250000,0.07360839843750,-0.69812011718750,moving
201.38,3,0,3,1,-3.0100,1.5100,0.1900,-143.9375,-52.5000,126.5000,0.14672851562500,0.69610595703125,0.07397460937500,-0.69891357421875,moving
201.39,3,0,3,1,-2.9400,-1.3300,-0.9200,-144.3125,-51.1250,124.8750,0.16345214843750,0.69183349609375,0.07446289062500,-0.69934082031250,moving
201.40,3,0,3,1,-2.0300,-3.0100,-1.1800,-141.1250,-63.2500,119.8125,0.17974853515625,0.68658447265625,0.07489013671875,-0.70043945312500,moving
201.41,3,0,3,1,-0.8800,-4.5700,-1.0200,-129.7500,-81.1250,113.3125,0.19500732421875,0.68023681640625,0.07464599609375,-0.70263671875000,moving
201.42,3,0,3,1,-0.1700,-7.2500,-1.0700,-115.3125,-88.8750,105.1875,0.20892333984375,0.67346191406250,0.07391357421875,-0.70526123046875,moving
201.43,3,0,3,1,0.3000,-8.3900,-1.3400,-107.8750,-91.5625,93.7500,0.22161865234375,0.66632080078125,0.07330322265625,-0.70812988281250,moving
201.44,3,0,3,1,0.8300,-9.2900,-1.9200,-117.5625,-92.0000,88.9375,0.23455810546875,0.65887451171875,0.07360839843750,-0.71093750000000,moving
201.45,3,0,3,1,1.0800,-10.0700,-2.9100,-142.8750,-81.8750,80.3750,0.24829101562500,0.65130615234375,0.07611083984375,-0.71301269531250,moving
201.46,3,0,3,1,1.0800,-11.6100,-5.4700,-157.4375,-52.6875,64.3125,0.26153564453125,0.64495849609375,0.08105468750000,-0.71350097656250,moving
201.47,3,0,3,1,0.8100,-13.2500,-6.5200,-121.1875,-15.6250,42.3750,0.27111816406250,0.64147949218750,0.08581542968750,-0.71252441406250,moving
201.48,3,0,3,1,0.4200,-14.6900,-7.8600,-38.8750,12.5000,33.0000,0.27526855468750,0.64154052734375,0.08666992187500,-0.71075439453125,moving
201.49,3,0,3,1,0.6800,-15.3600,-8.7900,74.6250,22.7500,31.6250,0.27288818359375,0.64495849609375,0.08087158203125,-0.70922851562500,moving
201.50,3,0,3,1,1.4700,-12.5600,-8.3900,187.0625,15.2500,30.1875,0.26403808593750,0.65051269531250,0.06793212890625,-0.70886230468750,moving
201.51,3,0,3,1,1.4700,-12.5600,-8.3900,187.0625,15.2500,30.1875,0.26403808593750,0.65051269531250,0.06793212890625,-0.70886230468750,moving
201.51,3,0,3,1,2.0200,-11.5300,-6.4800,257.4375,-4.5625,22.9375,0.25079345703125,0.65612792968750,0.05059814453125,-0.70996093750000,moving
201.52,3,0,3,1,2.4700,-10.4500,-4.9600,249.4375,-7.4375,8.8125,0.23706054687500,0.66101074218750,0.03454589843750,-0.71112060546875,moving
201.53,3,0,3,1,2.8800,-9.9600,-3.8800,184.2500,12.6875,-13.6875,0.22546386718750,0.66546630859375,0.02416992187500,-0.71112060546875,moving
201.54,3,0,3,1,3.4000,-8.2800,-2.1300,104.3750,33.0625,-34.7500,0.21710205078125,0.66949462890625,0.02044677734375,-0.71008300781250,moving
201.55,3,0,3,1,3.2700,-7.1500,-1.5200,33.8125,49.8750,-53.2500,0.21173095703125,0.67309570312500,0.02246093750000,-0.70825195312500,moving
201.56,3,0,3,1,2.5700,-6.1000,-0.7600,-14.1875,58.6875,-73.5000,0.20782470703125,0.67633056640625,0.02874755859375,-0.70611572265625,moving
201.57,3,0,3,1,0.6000,-4.6100,1.1700,-37.5000,56.5000,-89.5000,0.20434570312500,0.67889404296875,0.03741455078125,-0.70422363281250,moving
201.58,3,0,3,1,-2.2700,-4.0000,2.5900,-33.4375,46.0000,-103.8125,0.19970703125000,0.68072509765625,0.04650878906250,-0.70324707031250,moving
201.59,3,0,3,1,-4.1800,-2.6800,3.7800,14.0625,29.6875,-105.8750,0.19219970703125,0.68237304687500,0.05249023437500,-0.70330810546875,moving
201.60,3,0,3,1,-4.7200,-0.4600,4.9200,95.6875,-10.8750,-91.7500,0.18084716796875,0.68286132812500,0.05200195312500,-0.70593261718750,moving
201.61,3,0,3,1,-2.1500,-3.0100,2.5500,139.8125,-27.0000,-93.3750,0.16680908203125,0.68286132812500,0.04858398437500,-0.70959472656250,moving
201.62,3,0,3,1,-1.4500,-3.2000,1.0800,129.6875,-11.8750,-110.0625,0.15222167968750,0.68347167968750,0.04699707031250,-0.71234130859375,moving
201.63,3,0,3,1,-1.3500,-3.1100,-0.0700,111.5000,-17.9375,-120.2500,0.13812255859375,0.68328857421875,0.04705810546875,-0.71545410156250,moving
201.64,3,0,3,1,-0.9900,-2.5700,-0.8000,89.0625,-41.0625,-130.7500,0.12475585937500,0.68115234375000,0.04882812500000,-0.71972656250000,moving
201.65,3,0,3,1,-0.2500,-0.5400,-1.1600,66.5625,-57.0625,-139.0625,0.11224365234375,0.67767333984375,0.05236816406250,-0.72485351562500,moving
201.66,3,0,3,1,-0.3300,0.7700,-1.0700,38.3750,-55.4375,-142.3750,0.10113525390625,0.67376708984375,0.05786132812500,-0.72967529296875,moving
201.67,3,0,3,1,-0.7400,2.3700,-1.1000,10.5625,-45.1250,-140.3750,0.09173583984375,0.67022705078125,0.06512451171875,-0.73358154296875,moving
201.68,3,0,3,1,-1.1900,3.8900,-1.0200,-9.6250,-37.9375,-134.7500,0.08386230468750,0.66693115234375,0.07336425781250,-0.73675537109375,moving
201.69,3,0,3,1,-2.0400,6.7800,-0.4800,-16.1875,-27.3125,-119.1250,0.07727050781250,0.66424560546875,0.08117675781250,-0.73907470703125,moving
201.70,3,0,3,1,-2.4900,8.5900,-0.1500,0.5625,-0.3125,-98.0000,0.07086181640625,0.66351318359375,0.08685302734375,-0.73974609375000,moving
201.71,3,0,3,1,-2.4700,9.6000,0.0200,20.0625,20.4375,-90.9375,0.06359863281250,0.66424560546875,0.09100341796875,-0.73925781250000,moving
201.72,3,0,3,1,-2.8400,10.7100,-0.0100,17.5625,32.0000,-90.1875,0.05651855468750,0.66564941406250,0.09533691406250,-0.73797607421875,moving
201.73,3,0,3,1,-4.0700,13.5400,-0.4200,1.4375,33.9375,-82.1250,0.05084228515625,0.66711425781250,0.10015869140625,-0.73638916015625,moving
201.74,3,0,3,1,-4.9700,16.7100,-1.1200,-10.1875,35.1875,-60.0625,0.04724121093750,0.66882324218750,0.10449218750000,-0.73449707031250,stop
201.75,3,0,3,1,-4.8000,16.8100,-1.5800,-8.5000,33.8125,-31.0625,0.04541015625000,0.67065429687500,0.10699462890625,-0.73260498046875,stop
201.76,3,0,3,1,-3.1800,11.8400,-0.8500,7.1250,19.1250,-30.0625,0.04290771484375,0.67163085937500,0.10839843750000,-0.73162841796875,stop
201.77,3,0,3,1,-3.1800,11.8400,-0.8500,7.1250,19.1250,-30.0625,0.04290771484375,0.67163085937500,0.10839843750000,-0.73162841796875,stop
201.78,3,0,3,1,-2.8600,9.1600,0.8700,39.1250,-5.8125,-21.5625,0.03930664062500,0.67120361328125,0.10711669921875,-0.73242187500000,stop
201.78,3,0,3,1,-2.1000,6.5600,2.4600,55.0625,-10.6250,2.5625,0.03637695312500,0.67077636718750,0.10339355468750,-0.73352050781250,stop
201.79,3,0,3,1,-2.0700,5.0900,3.2500,42.6250,15.6875,14.5625,0.03466796875000,0.67199707031250,0.09979248046875,-0.73297119140625,stop
201.80,3,0,3,1,-3.7100,2.3000,2.4800,13.5625,70.0625,21.8750,0.03472900390625,0.67669677734375,0.09783935546875,-0.72888183593750,stop
201.81,3,0,3,1,-4.4000,2.2300,2.6200,-9.7500,103.4375,32.1250,0.03649902343750,0.68353271484375,0.09686279296875,-0.72253417968750,stop
201.82,3,0,3,2,-5.0100,2.5400,2.2500,-31.4375,107.6875,43.8125,0.04022216796875,0.69055175781250,0.09649658203125,-0.71569824218750,stop
201.83,3,0,3,2,-5.7500,3.6100,1.9200,-71.3125,92.1875,48.9375,0.04687500000000,0.69641113281250,0.09826660156250,-0.70935058593750,stop
201.84,3,0,3,2,-5.4300,4.7900,2.4900,-101.2500,57.1875,47.9375,0.05554199218750,0.69989013671875,0.10180664062500,-0.70477294921875,stop
201.85,3,0,3,2,-4.0700,4.3300,3.0500,-101.0000,33.9375,46.1250,0.06427001953125,0.70190429687500,0.10534667968750,-0.70153808593750,stop
201.86,3,0,3,2,-2.8600,3.3700,2.9900,-84.4375,29.3125,48.6250,0.07220458984375,0.70361328125000,0.10766601562500,-0.69866943359375,stop
201.87,3,0,3,2,-2.2100,2.1300,2.6600,-71.1250,19.8750,53.1250,0.07965087890625,0.70483398437500,0.10882568359375,-0.69641113281250,stop
201.88,3,0,3,2,-1.6300,-0.1600,1.7100,-57.5625,1.4375,50.9375,0.08630371093750,0.70501708984375,0.10913085937500,-0.69543457031250,stop
201.89,3,0,3,2,-1.1100,-0.7700,1.6000,-50.1875,-16.2500,47.6250,0.09246826171875,0.70404052734375,0.10906982421875,-0.69561767578125,stop
201.90,3,0,3,2,-0.4600,-1.1900,1.4700,-57.1875,-33.1875,46.8125,0.09918212890625,0.70202636718750,0.10937500000000,-0.69671630859375,stop
201.91,3,0,3,2,0.1800,-1.4500,1.1800,-73.0000,-47.5000,50.4375,0.10723876953125,0.69891357421875,0.11022949218750,-0.69848632812500,stop
201.92,3,0,3,2,1.6200,-2.1900,0.9700,-84.8125,-60.8125,54.7500,0.11633300781250,0.69488525390625,0.11145019531250,-0.70080566406250,stop
201.93,3,0,3,2,2.3500,-2.4600,0.9600,-84.6875,-70.1250,57.1250,0.12567138671875,0.69024658203125,0.11242675781250,-0.70367431640625,stop
201.94,3,0,3,2,2.6800,-2.7600,0.3800,-80.0625,-70.8125,59.1875,0.13488769531250,0.68554687500000,0.11291503906250,-0.70642089843750,stop
201.95,3,0,3,2,3.3900,-4.1700,-0.4700,-75.0000,-70.1875,53.8125,0.14337158203125,0.68084716796875,0.11346435546875,-0.70922851562500,stop
201.96,3,0,3,2,3.7200,-4.3300,-1.0900,-65.1875,-66.0000,48.9375,0.15100097656250,0.67633056640625,0.11370849609375,-0.71191406250000,stop
201.97,3,0,3,2,3.8400,-5.0100,-1.6700,-55.0000,-64.7500,49.0000,0.15795898437500,0.67205810546875,0.11334228515625,-0.71453857421875,stop
201.98,3,0,3,2,4.3800,-5.5100,-1.7500,-45.4375,-66.3125,44.0000,0.16400146484375,0.66766357421875,0.11267089843750,-0.71734619140625,stop
201.99,3,0,3,2,4.9800,-7.1600,-2.6600,-42.7500,-59.3750,30.6250,0.16900634765625,0.66363525390625,0.11267089843750,-0.71997070312500,stop
202.00,3,0,3,2,5.2800,-6.9100,-3.2700,-41.6875,-47.5000,16.0625,0.17291259765625,0.66015625000000,0.11364746093750,-0.72204589843750,stop
202.01,3,0,3,2,5.4000,-6.8300,-3.6400,-31.9375,-43.1250,9.3125,0.17578125000000,0.65704345703125,0.11450195312500,-0.72406005859375,stop
202.02,3,0,3,2,5.1200,-5.8300,-3.4200,-15.1875,-49.5000,9.9375,0.17779541015625,0.65374755859375,0.11413574218750,-0.72662353515625,stop
202.03,3,0,3,2,5.1200,-5.8300,-3.4200,-15.1875,-49.5000,9.9375,0.17779541015625,0.65374755859375,0.11413574218750,-0.72662353515625,stop
202.03,3,0,3,2,3.2200,-3.8800,-2.0300,-13.3125,-51.3125,4.1250,0.17932128906250,0.65032958984375,0.11395263671875,-0.72937011718750,stop
202.04,3,0,3,2,1.7800,-3.1800,-1.6300,-19.6875,-38.4375,-6.9375,0.18035888671875,0.64746093750000,0.11499023437500,-0.73144531250000,stop
202.05,3,0,3,2,0.3400,-2.5000,-1.2300,-25.8750,-20.8125,-14.9375,0.18109130859375,0.64556884765625,0.11712646484375,-0.73260498046875,stop
202.06,3,0,3,2,-0.8900,-1.6700,-1.0500,-40.4375,-1.1250,-22.0000,0.18194580078125,0.64459228515625,0.12097167968750,-0.73260498046875,stop
202.07,3,0,3,2,-2.1600,-0.2900,-1.1200,-61.4375,13.0625,-27.4375,0.18353271484375,0.64416503906250,0.12664794921875,-0.73168945312500,stop
202.08,3,0,3,2,-1.9700,0.5000,-1.1000,-82.5000,14.2500,-31.0625,0.18597412109375,0.64337158203125,0.13391113281250,-0.73040771484375,stop
202.09,3,0,3,2,-1.6300,1.3700,-1.0600,-97.8125,7.6250,-33.6875,0.18920898437500,0.64184570312500,0.14215087890625,-0.72937011718750,stop
202.10,3,0,3,2,-1.3400,2.1200,-0.9100,-103.3750,-0.5000,-33.8750,0.19287109375000,0.63970947265625,0.15063476562500,-0.72863769531250,stop
202.11,3,0,3,2,-1.2200,2.2300,-0.8900,-91.6875,-5.5000,-29.5625,0.19616699218750,0.63739013671875,0.15802001953125,-0.72821044921875,stop
202.12,3,0,3,2,-0.6500,2.1100,-1.0100,-61.2500,-5.7500,-20.1250,0.19830322265625,0.63568115234375,0.16296386718750,-0.72802734375000,stop
202.13,3,0,3,2,0.1200,0.9600,-1.1500,-19.8750,-9.0000,-10.5000,0.19891357421875,0.63464355468750,0.16461181640625,-0.72839355468750,stop
202.14,3,0,3,2,1.2800,-1.2600,-1.1400,10.8125,-16.3750,-2.2500,0.19836425781250,0.63372802734375,0.16381835937500,-0.72955322265625,stop
202.15,3,0,3,2,1.5200,-1.9000,-1.1200,27.7500,-18.6250,0.8125,0.19714355468750,0.63305664062500,0.16168212890625,-0.73095703125000,stop
202.16,3,0,3,2,1.6700,-2.1400,-1.0800,37.3750,-10.5000,0.0000,0.19525146484375,0.63299560546875,0.15911865234375,-0.73205566406250,stop
202.17,3,0,3,2,1.6400,-2.2700,-0.9100,36.9375,-2.1250,-1.5000,0.19311523437500,0.63348388671875,0.15679931640625,-0.73266601562500,stop
202.18,3,0,3,2,1.3300,-2.3000,-0.5300,30.4375,1.9375,-4.0000,0.19116210937500,0.63403320312500,0.15509033203125,-0.73303222656250,stop
202.19,3,0,3,2,1.2600,-2.0900,-0.3400,25.3750,5.4375,-6.3750,0.18920898437500,0.63476562500000,0.15393066406250,-0.73321533203125,stop
202.20,3,0,3,2,1.1700,-1.7900,-0.1700,23.5000,8.0000,-8.4375,0.18725585937500,0.63549804687500,0.15307617187500,-0.73321533203125,stop
202.21,3,0,3,2,1.0700,-1.3900,-0.0900,22.0000,8.1250,-10.0000,0.18530273437500,0.63629150390625,0.15234375000000,-0.73321533203125,stop
202.22,3,0,3,2,0.4200,-0.1700,-0.1600,21.0000,8.1875,-12.0000,0.18322753906250,0.63696289062500,0.15185546875000,-0.73321533203125,stop
202.23,3,0,3,2,0.0200,0.3200,-0.1600,20.4375,9.0000,-13.3750,0.18109130859375,0.63769531250000,0.15142822265625,-0.73321533203125,stop
202.24,3,0,3,2,-0.2500,0.8100,-0.2200,16.6250,11.1875,-13.8125,0.17913818359375,0.63848876953125,0.15130615234375,-0.73303222656250,stop
202.25,3,0,3,2,-0.4400,1.2100,-0.2400,11.0625,13.3750,-13.9375,0.17742919921875,0.63934326171875,0.15161132812500,-0.73266601562500,stop
202.26,3,0,3,2,-0.3100,1.6400,-0.0900,8.0000,15.5000,-13.5625,0.17590332031250,0.64025878906250,0.15209960937500,-0.73211669921875,stop
202.27,3,0,3,3,-0.4600,1.5600,-0.0700,8.4375,18.1250,-11.7500,0.17443847656250,0.64141845703125,0.15252685546875,-0.73138427734375,stop
202.28,3,0,3,3,-0.4400,1.0700,0.0200,11.2500,17.0625,-9.8125,0.17291259765625,0.64257812500000,0.15258789062500,-0.73071289062500,stop
202.29,3,0,3,3,-0.1100,0.3600,0.1200,13.9375,13.2500,-7.8750,0.17144775390625,0.64349365234375,0.15240478515625,-0.73028564453125,stop
202.30,3,0,3,3,0.0000,0.2700,0.1600,13.8750,9.1250,-6.5625,0.17010498046875,0.64422607421875,0.15197753906250,-0.73004150390625,stop
202.31,3,0,3,3,0.0800,0.2800,0.1100,10.6875,5.8125,-6.1250,0.16900634765625,0.64465332031250,0.15173339843750,-0.72991943359375,stop
202.32,3,0,3,3,0.1700,0.2700,0.0600,7.1250,3.5625,-6.0000,0.16821289062500,0.64489746093750,0.15173339843750,-0.72991943359375,stop
202.33,3,0,3,3,0.2700,0.2900,-0.0700,6.0000,1.6875,-5.3750,0.16748046875000,0.64501953125000,0.15167236328125,-0.72998046875000,stop
202.34,3,0,3,3,0.4300,0.1400,-0.2200,7.5000,2.1875,-4.4375,0.16674804687500,0.64526367187500,0.15148925781250,-0.73004150390625,stop
202.35,3,0,3,3,0.2800,0.2200,-0.2400,10.9375,3.0625,-3.4375,0.16583251953125,0.64556884765625,0.15100097656250,-0.73004150390625,stop
202.36,3,0,3,3,0.2700,0.2600,-0.4500,16.7500,1.1875,-2.6250,0.16473388671875,0.64581298828125,0.15014648437500,-0.73022460937500,stop
202.37,3,0,3,3,0.2700,0.2600,-0.4500,16.7500,1.1875,-2.6250,0.16473388671875,0.64581298828125,0.15014648437500,-0.73022460937500,stop
202.38,3,0,3,3,0.7500,-0.3700,0.3000,20.6250,6.3125,-0.2500,0.16345214843750,0.64654541015625,0.14892578125000,-0.73016357421875,stop
202.38,3,0,3,3,0.5400,-0.4800,0.1200,10.2500,17.8125,-1.0000,0.16259765625000,0.64782714843750,0.14855957031250,-0.72924804687500,stop
202.39,3,0,3,3,0.3900,-0.2700,0.1900,6.1250,23.0625,-2.3125,0.16174316406250,0.64935302734375,0.14862060546875,-0.72808837890625,stop
202.40,3,0,3,3,0.1600,-0.0900,0.2600,10.3125,19.0000,-2.3750,0.16076660156250,0.65063476562500,0.14837646484375,-0.72717285156250,stop
202.41,3,0,3,3,0.0300,-0.1700,0.2900,12.8750,12.6875,-2.0000,0.15972900390625,0.65161132812500,0.14788818359375,-0.72662353515625,stop
202.42,3,0,3,3,0.1300,-0.1300,0.3000,13.8750,7.1875,-2.0625,0.15875244140625,0.65222167968750,0.14721679687500,-0.72644042968750,stop
202.44,3,0,3,3,0.2100,-0.0100,0.2600,11.4375,2.6875,-3.2500,0.15783691406250,0.65252685546875,0.14672851562500,-0.72650146484375,stop
202.44,3,0,3,3,0.1900,0.2600,-0.1000,6.8750,1.3750,-5.1875,0.15710449218750,0.65264892578125,0.14660644531250,-0.72656250000000,stop
202.45,3,0,3,3,0.1300,0.3800,-0.1300,4.3750,-0.3125,-6.4375,0.15643310546875,0.65264892578125,0.14672851562500,-0.72668457031250,stop
202.46,3,0,3,3,0.1100,0.5300,-0.1700,3.9375,-1.6250,-6.8750,0.15576171875000,0.65246582031250,0.14685058593750,-0.72692871093750,stop
202.47,3,0,3,3,0.0800,0.6900,-0.1600,4.0625,-0.8125,-7.0625,0.15509033203125,0.65240478515625,0.14697265625000,-0.72711181640625,stop
202.48,3,0,3,3,0.0400,0.8100,-0.1800,3.9375,2.0000,-6.6250,0.15441894531250,0.65246582031250,0.14715576171875,-0.72717285156250,stop
202.49,3,0,3,3,0.0500,0.7600,-0.1200,4.1250,5.0000,-5.6250,0.15374755859375,0.65277099609375,0.14727783203125,-0.72698974609375,stop
202.50,3,0,3,3,0.0300,0.6800,-0.0100,5.2500,6.9375,-4.2500,0.15307617187500,0.65325927734375,0.14727783203125,-0.72674560546875,stop
202.51,3,0,3,3,0.0900,0.5900,0.0600,5.3125,6.7500,-3.2500,0.15246582031250,0.65368652343750,0.14721679687500,-0.72644042968750,stop
202.53,3,0,3,3,0.1100,0.3700,0.0900,3.9375,5.4375,-3.0625,0.15197753906250,0.65405273437500,0.14721679687500,-0.72625732421875,stop
202.53,3,0,3,3,0.1600,-0.0600,0.0100,2.3750,4.3125,-3.3125,0.16870117187500,0.65484619140625,0.12829589843750,-0.72540283203125,stop
202.54,3,0,3,3,0.1900,-0.1300,0.0000,1.5625,1.6875,-3.3125,0.16833496093750,0.65496826171875,0.12841796875000,-0.72540283203125,stop
202.55,3,0,3,3,0.2100,-0.1700,-0.0300,0.2500,0.5000,-2.9375,0.16815185546875,0.65490722656250,0.12860107421875,-0.72540283203125,stop
202.56,3,0,3,3,0.2300,-0.2200,-0.0300,-1.1875,1.2500,-2.6875,0.16802978515625,0.65496826171875,0.12884521484375,-0.72540283203125,stop
202.57,3,0,3,3,0.2000,-0.2300,-0.0900,-2.0000,1.9375,-2.6250,0.16796875000000,0.65502929687500,0.12915039062500,-0.72528076171875,stop
202.58,3,0,3,3,0.2200,-0.2900,-0.0900,-2.0000,2.1875,-2.4375,0.16784667968750,0.65509033203125,0.12951660156250,-0.72515869140625,stop
202.59,3,0,3,3,0.2200,-0.3400,0.0000,-1.0000,1.8750,-2.3750,0.16766357421875,0.65515136718750,0.12988281250000,-0.72509765625000,stop
202.60,3,0,3,3,0.2100,-0.4700,0.0700,-0.8750,2.1875,-2.3750,0.16735839843750,0.65521240234375,0.13024902343750,-0.72503662109375,stop
202.61,3,0,3,3,0.2300,-0.4900,0.0800,-0.5625,2.0000,-2.6250,0.16699218750000,0.65521240234375,0.13073730468750,-0.72503662109375,stop
202.62,3,0,3,3,0.3200,-0.5500,0.0800,-0.4375,0.8125,-2.6250,0.16680908203125,0.65527343750000,0.13085937500000,-0.72503662109375,stop
202.63,3,0,3,3,0.2100,-0.3600,-0.0600,-1.0000,-0.1250,-3.0625,0.16668701171875,0.65521240234375,0.13110351562500,-0.72509765625000,stop
202.64,3,0,3,3,0.2200,-0.2800,-0.0900,-1.0000,-0.8750,-3.6250,0.16650390625000,0.65509033203125,0.13140869140625,-0.72515869140625,stop
202.65,3,0,3,3,0.1600,-0.1800,-0.1300,-1.5000,-1.0000,-3.8125,0.16632080078125,0.65496826171875,0.13177490234375,-0.72528076171875,stop
202.66,3,0,3,3,0.1800,-0.0100,-0.2100,-2.1875,0.0625,-3.3750,0.16619873046875,0.65490722656250,0.13214111328125,-0.72528076171875,stop
202.67,3,0,3,3,0.1100,0.1600,-0.3400,-1.6875,1.2500,-2.5625,0.16613769531250,0.65490722656250,0.13238525390625,-0.72521972656250,stop
202.68,3,0,3,3,0.0700,0.1800,-0.3700,-0.5625,1.5000,-1.3125,0.16607666015625,0.65496826171875,0.13256835937500,-0.72515869140625,stop
202.69,3,0,3,3,0.0500,0.1500,-0.3600,0.7500,1.4375,0.0625,0.16601562500000,0.65509033203125,0.13250732421875,-0.72509765625000,stop
202.70,3,0,3,3,0.0900,0.0800,-0.3100,1.9375,2.2500,1.3125,0.16595458984375,0.65527343750000,0.13232421875000,-0.72497558593750,stop
202.71,3,0,3,3,0.0600,-0.0800,-0.1400,2.5625,3.2500,2.1875,0.16589355468750,0.65557861328125,0.13214111328125,-0.72479248046875,stop
202.72,3,0,3,3,0.0700,-0.2200,-0.0400,2.3125,4.6250,2.6250,0.16583251953125,0.65594482421875,0.13189697265625,-0.72448730468750,stop
202.73,3,0,3,3,0.0900,-0.3200,0.0300,1.9375,4.5625,2.8750,0.16583251953125,0.65631103515625,0.13171386718750,-0.72418212890625,stop
202.76,3,0,3,3,0.1500,-0.4100,0.0500,1.6250,3.6250,2.8750,0.16589355468750,0.65655517578125,0.13146972656250,-0.72393798828125,stop
202.76,3,0,3,3,0.2500,-0.4600,0.0200,1.1250,2.0625,2.6875,0.16595458984375,0.65673828125000,0.13128662109375,-0.72381591796875,stop
202.78,3,0,3,3,0.2600,-0.4200,0.0100,0.1250,0.6875,2.3125,0.16613769531250,0.65686035156250,0.13116455078125,-0.72369384765625,stop
202.79,3,0,3,3,0.2200,-0.3800,-0.0700,-0.6250,0.0000,1.9375,0.16625976562500,0.65686035156250,0.13110351562500,-0.72369384765625,stop
202.79,3,0,3,3,0.2000,-0.4400,-0.0900,-0.7500,-0.1250,2.0000,0.16644287109375,0.65686035156250,0.13104248046875,-0.72363281250000,stop
202.80,3,0,3,3,0.1400,-0.4300,-0.0700,-0.2500,0.0000,2.0000,0.16638183593750,0.65686035156250,0.13116455078125,-0.72363281250000,stop
202.81,3,0,3,3,0.1400,-0.4300,-0.0400,0.1250,0.0625,1.8125,0.16625976562500,0.65686035156250,0.13128662109375,-0.72363281250000,stop
202.82,3,0,3,3,0.1100,-0.4500,-0.0200,-0.0625,0.1250,1.3125,0.16613769531250,0.65686035156250,0.13146972656250,-0.72363281250000,stop
202.83,3,0,3,3,0.1700,-0.4000,0.0000,-0.5000,-0.0625,0.5000,0.16589355468750,0.65679931640625,0.13171386718750,-0.72369384765625,stop
202.84,3,0,3,3,0.2100,-0.3400,-0.0100,-0.5000,-1.0625,0.0625,0.16577148437500,0.65667724609375,0.13189697265625,-0.72381591796875,stop
202.86,3,0,3,3,0.2500,-0.2900,-0.0200,0.0000,-2.1250,0.0000,0.16564941406250,0.65655517578125,0.13201904296875,-0.72393798828125,stop
202.87,3,0,3,3,0.2400,-0.2700,-0.1100,0.1250,-2.2500,0.3750,0.16552734375000,0.65637207031250,0.13208007812500,-0.72412109375000,stop
202.87,3,0,3,3,0.2100,-0.2600,-0.1300,0.0625,-1.6875,0.8125,0.16552734375000,0.65631103515625,0.13214111328125,-0.72418212890625,stop
202.88,3,0,3,3,0.2100,-0.2700,-0.1200,-0.1875,-1.0000,1.0625,0.16552734375000,0.65625000000000,0.13214111328125,-0.72418212890625,stop
202.89,3,0,3,3,0.1700,-0.2500,-0.1000,-0.5000,-0.5000,1.1250,0.16546630859375,0.65625000000000,0.13220214843750,-0.72418212890625,stop
202.90,3,0,3,3,0.1500,-0.2800,-0.1100,-0.6250,0.5625,1.3750,0.16552734375000,0.65631103515625,0.13226318359375,-0.72412109375000,stop
202.91,3,0,3,3,0.1400,-0.2700,-0.0600,-0.5000,1.5000,1.5625,0.16552734375000,0.65643310546875,0.13226318359375,-0.72399902343750,stop
202.93,3,0,3,3,0.1700,-0.2600,-0.0500,0.0000,1.8125,1.8125,0.16552734375000,0.65661621093750,0.13226318359375,-0.72387695312500,stop
202.94,3,0,3,3,0.1900,-0.3000,-0.0200,0.1250,1.8750,1.6875,0.16552734375000,0.65673828125000,0.13232421875000,-0.72375488281250,stop
202.95,3,0,3,3,0.2200,-0.3100,-0.0100,-0.0625,1.3750,1.3125,0.16546630859375,0.65679931640625,0.13238525390625,-0.72369384765625,stop
202.95,3,0,3,3,0.2000,-0.3000,-0.0300,-0.3750,1.2500,1.0625,0.16540527343750,0.65686035156250,0.13244628906250,-0.72363281250000,stop
202.96,3,0,3,3,0.2400,-0.3400,0.0100,-0.3750,1.2500,0.9375,0.16534423828125,0.65692138671875,0.13256835937500,-0.72357177734375,stop
202.97,3,0,3,3,0.2400,-0.3800,0.0100,-0.1875,1.0625,0.8750,0.16522216796875,0.65698242187500,0.13269042968750,-0.72351074218750,stop
202.98,3,0,3,3,0.2100,-0.4500,0.0500,0.0625,0.9375,0.7500,0.16510009765625,0.65698242187500,0.13287353515625,-0.72351074218750,stop
202.99,3,0,3,3,0.1900,-0.4800,0.0400,0.0000,1.1250,0.5000,0.16485595703125,0.65698242187500,0.13317871093750,-0.72351074218750,stop
203.01,3,0,3,3,0.1800,-0.4900,0.0200,-0.1875,0.7500,0.3125,0.16455078125000,0.65692138671875,0.13348388671875,-0.72357177734375,stop
203.02,3,0,3,3,0.1700,-0.4600,0.0000,-0.2500,0.4375,0.0000,0.16430664062500,0.65686035156250,0.13372802734375,-0.72363281250000,stop
203.03,3,0,3,3,0.1700,-0.3200,-0.0200,-0.5000,0.0625,-0.1875,0.16412353515625,0.65679931640625,0.13397216796875,-0.72369384765625,stop
203.04,3,0,3,3,0.1700,-0.3000,-0.0400,-0.5625,0.0000,-0.1875,0.16400146484375,0.65673828125000,0.13415527343750,-0.72375488281250,stop
203.04,3,0,3,3,0.1600,-0.2800,-0.0200,-0.4375,0.3750,-0.4375,0.16387939453125,0.65673828125000,0.13427734375000,-0.72375488281250,stop
203.05,3,0,3,3,0.1600,-0.3200,-0.0400,-0.3125,0.9375,-0.1875,0.16375732421875,0.65673828125000,0.13446044921875,-0.72375488281250,stop
203.06,3,0,3,3,0.2000,-0.2900,-0.0400,-0.3125,1.2500,-0.1875,0.16363525390625,0.65679931640625,0.13458251953125,-0.72369384765625,stop
203.08,3,0,3,3,0.1700,-0.2900,-0.0400,-0.0625,1.1250,0.0000,0.16351318359375,0.65686035156250,0.13476562500000,-0.72363281250000,stop
203.09,3,0,3,3,0.1700,-0.2900,-0.0800,0.0625,1.0000,0.1250,0.16339111328125,0.65692138671875,0.13488769531250,-0.72357177734375,stop
203.10,3,0,3,3,0.2000,-0.2600,-0.0400,0.3125,1.3750,0.1250,0.16326904296875,0.65698242187500,0.13500976562500,-0.72351074218750,stop
203.11,3,0,3,3,0.1900,-0.2700,-0.0200,0.8750,1.6875,0.0625,0.16308593750000,0.65710449218750,0.13507080078125,-0.72344970703125,stop
203.12,3,0,3,3,0.1800,-0.2900,0.0100,1.3125,2.0000,0.2500,0.16290283203125,0.65722656250000,0.13513183593750,-0.72332763671875,stop
203.12,3,0,3,3,0.1700,-0.3000,-0.0100,1.6875,2.3750,0.2500,0.16265869140625,0.65740966796875,0.13519287109375,-0.72326660156250,stop
203.13,3,0,3,3,0.1900,-0.2800,-0.0100,1.9375,1.7500,0.2500,0.16241455078125,0.65753173828125,0.13519287109375,-0.72320556640625,stop
203.14,3,0,3,3,0.2400,-0.1700,-0.1000,1.4375,1.1875,0.1250,0.16223144531250,0.65759277343750,0.13519287109375,-0.72314453125000,stop
203.15,3,0,3,3,0.2000,-0.1700,-0.1100,0.8750,1.2500,0.1250,0.16210937500000,0.65771484375000,0.13519287109375,-0.72308349609375,stop
203.17,3,0,3,3,0.1400,-0.1500,-0.1400,0.8125,1.5000,0.3125,0.16198730468750,0.65783691406250,0.13525390625000,-0.72302246093750,stop
203.18,3,0,3,3,0.1300,-0.2100,-0.1000,0.9375,2.0625,0.5000,0.16186523437500,0.65795898437500,0.13525390625000,-0.72290039062500,stop
203.19,3,0,3,3,0.1700,-0.2400,-0.0600,0.8750,2.4375,0.6875,0.16180419921875,0.65814208984375,0.13525390625000,-0.72277832031250,stop
203.20,3,0,3,3,0.1800,-0.2900,-0.0600,0.8750,3.0625,0.7500,0.16168212890625,0.65838623046875,0.13531494140625,-0.72259521484375,stop
203.20,3,0,3,3,0.1700,-0.3000,-0.0500,1.2500,2.9375,0.5000,0.16143798828125,0.65856933593750,0.13537597656250,-0.72241210937500,stop
203.21,3,0,3,3,0.1700,-0.3200,-0.1000,1.4375,2.1875,0.1875,0.16125488281250,0.65875244140625,0.13543701171875,-0.72229003906250,stop
203.23,3,0,3,3,0.1700,-0.3300,-0.1200,1.5000,1.5625,0.0000,0.16101074218750,0.65887451171875,0.13543701171875,-0.72222900390625,stop
203.24,3,0,3,3,0.2100,-0.3400,-0.1200,1.4375,1.3750,-0.0625,0.16082763671875,0.65899658203125,0.13555908203125,-0.72216796875000,stop
203.25,3,0,3,3,0.2400,-0.3200,-0.1500,2.1250,1.5625,0.0000,0.16052246093750,0.65911865234375,0.13555908203125,-0.72210693359375,stop
203.25,3,0,3,3,0.2600,-0.3500,-0.1300,2.8750,2.0625,0.0000,0.16021728515625,0.65930175781250,0.13555908203125,-0.72198486328125,stop
203.26,3,0,3,3,0.2600,-0.3400,-0.1200,3.3750,2.6875,0.0000,0.15985107421875,0.65954589843750,0.13549804687500,-0.72186279296875,stop
203.27,3,0,3,3,0.2800,-0.3100,-0.0800,3.6875,2.8750,0.0000,0.15948486328125,0.65979003906250,0.13549804687500,-0.72174072265625,stop
203.28,3,0,3,3,0.2600,-0.2900,-0.0600,3.3750,3.1250,-0.2500,0.15911865234375,0.66003417968750,0.13543701171875,-0.72161865234375,stop
203.28,3,0,3,3,0.2300,-0.2700,-0.1000,3.1250,3.0000,-0.6250,0.15875244140625,0.66021728515625,0.13543701171875,-0.72149658203125,stop
203.29,3,0,3,3,0.2000,-0.2500,-0.1200,2.9375,2.8750,-0.6875,0.15838623046875,0.66046142578125,0.13543701171875,-0.72137451171875,stop
203.31,3,0,3,3,0.1400,-0.2100,-0.1000,2.9375,2.4375,-0.6250,0.15808105468750,0.66064453125000,0.13537597656250,-0.72125244140625,stop
203.32,3,0,3,3,0.0600,-0.2300,-0.0900,3.0000,3.3125,-0.4375,0.15777587890625,0.66094970703125,0.13531494140625,-0.72106933593750,stop
203.33,3,0,3,3,0.0300,-0.2100,-0.0800,3.0625,3.6875,-0.5000,0.15753173828125,0.66119384765625,0.13525390625000,-0.72088623046875,stop
203.34,3,0,3,3,0.0700,-0.2400,-0.0600,3.2500,3.8750,-0.6250,0.15716552734375,0.66149902343750,0.13519287109375,-0.72070312500000,stop
203.35,3,0,3,3,0.1100,-0.2600,-0.0500,3.1250,3.4375,-0.8125,0.15679931640625,0.66174316406250,0.13519287109375,-0.72058105468750,stop
203.36,3,0,3,3,0.2200,-0.2600,-0.0400,3.0000,2.7500,-1.0625,0.15643310546875,0.66192626953125,0.13519287109375,-0.72045898437500,stop
203.36,3,0,3,3,0.2200,-0.2600,-0.0500,2.6875,1.5000,-1.3750,0.15606689453125,0.66204833984375,0.13519287109375,-0.72045898437500,stop
203.37,3,0,3,3,0.2200,-0.2400,-0.0900,2.3125,1.1875,-1.6250,0.15576171875000,0.66217041015625,0.13525390625000,-0.72039794921875,stop
203.39,3,0,3,3,0.2200,-0.2700,-0.1000,2.3125,1.0625,-1.6250,0.15545654296875,0.66223144531250,0.13531494140625,-0.72039794921875,stop
203.40,3,0,3,3,0.2400,-0.3100,-0.1000,2.5000,1.6250,-1.5000,0.15509033203125,0.66235351562500,0.13537597656250,-0.72033691406250,stop
203.41,3,0,3,3,0.2700,-0.3500,-0.0800,3.0625,2.1250,-1.4375,0.15466308593750,0.66253662109375,0.13543701171875,-0.72027587890625,stop
203.42,3,0,3,3,0.2500,-0.3500,-0.0800,3.7500,2.5625,-1.5625,0.15417480468750,0.66271972656250,0.13543701171875,-0.72021484375000,stop
203.43,3,0,3,3,0.2300,-0.3400,-0.0700,4.1875,2.4375,-1.5625,0.15368652343750,0.66290283203125,0.13543701171875,-0.72015380859375,stop
203.44,3,0,3,3,0.2200,-0.2800,-0.0200,4.3750,2.1875,-2.0625,0.15313720703125,0.66302490234375,0.13543701171875,-0.72009277343750,stop
203.45,3,0,3,3,0.2000,-0.2400,-0.0600,4.5625,2.1875,-2.0625,0.15264892578125,0.66320800781250,0.13543701171875,-0.72009277343750,stop
203.46,3,0,3,3,0.2000,-0.2400,-0.0800,4.4375,2.5625,-2.5000,0.15209960937500,0.66339111328125,0.13543701171875,-0.72003173828125,stop
203.47,3,0,3,3,0.1900,-0.2400,-0.0700,4.3750,2.8125,-2.8125,0.15155029296875,0.66363525390625,0.13543701171875,-0.71990966796875,stop
203.48,3,0,3,3,0.1500,-0.2100,-0.1000,4.3125,2.7500,-3.1250,0.15100097656250,0.66381835937500,0.13543701171875,-0.71984863281250,stop
203.49,3,0,3,3,0.1600,-0.2000,-0.1200,4.3750,2.3125,-3.2500,0.15045166015625,0.66400146484375,0.13543701171875,-0.71978759765625,stop
203.50,3,0,3,3,0.1200,-0.1800,-0.1500,4.1250,1.7500,-3.4375,0.14990234375000,0.66412353515625,0.13549804687500,-0.71978759765625,stop
203.51,3,0,3,3,0.1100,-0.1500,-0.2500,3.2500,1.7500,-3.9375,0.14935302734375,0.66430664062500,0.13562011718750,-0.71972656250000,stop
203.52,3,0,3,3,0.1200,-0.0200,-0.2300,2.9375,1.7500,-4.5000,0.14886474609375,0.66442871093750,0.13574218750000,-0.71966552734375,stop
203.53,3,0,3,3,0.1600,0.1100,-0.2500,3.5000,1.8750,-4.8750,0.14831542968750,0.66461181640625,0.13586425781250,-0.71960449218750,stop
203.54,3,0,3,3,0.1600,0.2200,-0.2400,4.4375,2.8750,-4.8125,0.14770507812500,0.66479492187500,0.13592529296875,-0.71960449218750,stop
203.55,3,0,3,3,0.1800,0.2300,-0.2300,4.8125,4.2500,-4.4375,0.14709472656250,0.66503906250000,0.13592529296875,-0.71942138671875,stop
203.56,3,0,3,3,0.1000,0.1900,-0.1900,4.5000,5.6250,-4.3125,0.14648437500000,0.66540527343750,0.13598632812500,-0.71923828125000,stop
203.57,3,0,3,3,0.0100,0.2500,-0.1300,4.5000,7.3750,-4.3125,0.14581298828125,0.66589355468750,0.13604736328125,-0.71887207031250,stop
203.58,3,0,3,3,0.0000,0.3100,-0.0400,4.3750,7.8125,-4.4375,0.14526367187500,0.66644287109375,0.13604736328125,-0.71850585937500,stop
203.59,3,0,3,3,0.0100,0.6600,0.0800,4.8750,8.0000,-4.4375,0.14459228515625,0.66693115234375,0.13610839843750,-0.71813964843750,stop
203.59,3,0,3,3,0.0100,0.6600,0.0800,4.8750,8.0000,-4.4375,0.14459228515625,0.66693115234375,0.13610839843750,-0.71813964843750,stop
203.60,3,0,3,3,0.1200,0.8300,0.1000,5.1250,8.1875,-3.8125,0.14398193359375,0.66748046875000,0.13610839843750,-0.71777343750000,stop
203.61,3,0,3,3,0.1400,1.0400,0.1900,5.7500,7.6875,-3.3125,0.14331054687500,0.66802978515625,0.13604736328125,-0.71740722656250,stop
203.62,3,0,3,3,0.1300,1.2800,0.1900,5.3750,5.9375,-2.3750,0.14282226562500,0.66839599609375,0.13592529296875,-0.71716308593750,stop
203.63,3,0,3,3,0.2400,1.6600,0.1700,3.8125,3.6875,-1.6250,0.14239501953125,0.66870117187500,0.13586425781250,-0.71704101562500,stop
203.64,3,0,3,3,0.1300,1.9500,0.0900,1.3750,0.0000,-1.3750,0.14227294921875,0.66870117187500,0.13586425781250,-0.71704101562500,stop
203.65,3,0,3,3,-0.0900,2.2400,-0.0400,-2.6250,-4.3125,-0.6250,0.14239501953125,0.66839599609375,0.13598632812500,-0.71728515625000,stop
203.66,3,0,3,3,-0.3700,2.8900,-0.3300,-8.0000,-7.6875,0.8125,0.14300537109375,0.66778564453125,0.13635253906250,-0.71765136718750,stop
203.67,3,0,3,3,-0.4800,3.2500,-0.4700,-14.5625,-12.0000,3.8125,0.14422607421875,0.66693115234375,0.13690185546875,-0.71807861328125,stop
203.68,3,0,3,3,-0.5000,3.4200,-0.6100,-22.0000,-14.8750,8.1250,0.14624023437500,0.66583251953125,0.13757324218750,-0.71862792968750,stop
203.69,3,0,3,3,-0.4800,3.7700,-0.7200,-27.9375,-15.8125,13.8750,0.14892578125000,0.66461181640625,0.13830566406250,-0.71899414062500,stop
203.70,3,0,3,3,-0.0400,3.9900,-0.9100,-31.8750,-14.8125,21.4375,0.15228271484375,0.66351318359375,0.13885498046875,-0.71917724609375,stop
203.71,3,0,3,3,0.1600,4.0500,-1.0000,-30.6875,-11.8750,31.3125,0.15618896484375,0.66278076171875,0.13879394531250,-0.71905517578125,stop
203.72,3,0,3,3,0.4400,3.8600,-1.0300,-25.6875,-10.2500,41.9375,0.16046142578125,0.66229248046875,0.13787841796875,-0.71875000000000,stop
203.73,3,0,3,3,0.6700,3.5400,-1.1100,-20.3125,-9.7500,52.3750,0.16503906250000,0.66198730468750,0.13592529296875,-0.71832275390625,stop
203.74,3,0,3,3,1.4900,2.9800,-0.9500,-15.1250,-10.5625,62.5000,0.16998291015625,0.66186523437500,0.13311767578125,-0.71783447265625,moving
203.75,3,0,3,3,1.8100,2.7100,-0.8600,-11.7500,-12.3750,70.8125,0.17523193359375,0.66174316406250,0.12957763671875,-0.71734619140625,moving
203.76,3,0,3,3,2.0400,2.5400,-0.5800,-8.5000,-12.7500,78.2500,0.18078613281250,0.66168212890625,0.12536621093750,-0.71679687500000,moving
203.77,3,0,3,3,2.1900,2.3200,-0.2900,-5.0000,-14.2500,85.3750,0.18658447265625,0.66162109375000,0.12048339843750,-0.71618652343750,moving
203.78,3,0,3,3,1.9100,1.6800,-0.0800,-3.0625,-11.6250,91.3125,0.19262695312500,0.66180419921875,0.11517333984375,-0.71527099609375,moving
203.79,3,0,3,3,1.6100,1.4600,0.0300,-3.0625,-6.8750,97.0625,0.19897460937500,0.66229248046875,0.10961914062500,-0.71398925781250,moving
203.80,3,0,3,3,1.3800,1.0900,0.1400,-7.1875,-5.8750,102.2500,0.20581054687500,0.66278076171875,0.10400390625000,-0.71246337890625,moving
203.81,3,0,3,3,1.1200,0.3400,0.2000,-15.8750,-5.3125,103.9375,0.21325683593750,0.66308593750000,0.09887695312500,-0.71069335937500,moving
203.82,3,0,3,3,0.6300,-1.2300,0.3600,-28.4375,-5.2500,102.2500,0.22131347656250,0.66308593750000,0.09460449218750,-0.70880126953125,moving
203.83,3,0,3,3,0.3800,-2.0200,0.2500,-55.0000,-4.0000,89.1250,0.23004150390625,0.66247558593750,0.09271240234375,-0.70684814453125,moving
203.84,3,0,3,3,0.1000,-2.7200,0.1300,-55.0000,-4.0000,89.1250,0.23876953125000,0.66180419921875,0.09088134765625,-0.70477294921875,moving
203.85,3,0,3,3,0.1000,-2.7200,0.1300,-55.0000,-4.0000,89.1250,0.23876953125000,0.66180419921875,0.09088134765625,-0.70477294921875,moving
203.85,3,0,3,3,0.4700,-3.8800,-0.1400,-66.3125,-17.5625,80.1875,0.24768066406250,0.65997314453125,0.08990478515625,-0.70355224609375,moving
203.86,3,0,3,3,0.8600,-4.6300,-0.5300,-75.2500,-35.8750,70.3125,0.25659179687500,0.65667724609375,0.08972167968750,-0.70349121093750,moving
203.87,3,0,3,3,1.1600,-5.5000,-1.1600,-83.3750,-51.5625,60.6250,0.26550292968750,0.65209960937500,0.09014892578125,-0.70440673828125,moving
203.88,3,0,3,3,1.2300,-6.1900,-1.9000,-78.9375,-62.3125,43.5000,0.27313232421875,0.64672851562500,0.09106445312500,-0.70623779296875,moving
203.89,3,0,3,3,0.9700,-7.2300,-3.0400,-78.9375,-62.3125,43.5000,0.28076171875000,0.64135742187500,0.09197998046875,-0.70806884765625,moving
203.90,3,0,3,3,0.3900,-7.6800,-3.4800,-66.6250,-61.6250,36.0000,0.28723144531250,0.63616943359375,0.09259033203125,-0.71008300781250,moving
203.91,3,0,3,3,-0.1900,-8.2200,-3.9500,-49.5625,-52.4375,28.4375,0.29211425781250,0.63189697265625,0.09277343750000,-0.71185302734375,moving
203.92,3,0,3,3,-0.6300,-8.6900,-4.3800,-26.0625,-31.0000,20.8750,0.29510498046875,0.62951660156250,0.09246826171875,-0.71282958984375,moving
203.93,3,0,3,3,-0.8600,-8.3100,-4.8000,28.7500,15.4375,8.3750,0.29388427734375,0.63128662109375,0.09057617187500,-0.71197509765625,moving
203.94,3,0,3,3,-0.5400,-7.4300,-4.6300,28.7500,15.4375,8.3750,0.29272460937500,0.63305664062500,0.08874511718750,-0.71112060546875,moving
203.95,3,0,3,3,-0.1900,-6.8400,-4.2800,46.8125,29.8125,1.8750,0.28997802734375,0.63610839843750,0.08654785156250,-0.70977783203125,moving
203.96,3,0,3,3,0.1300,-6.5700,-3.7700,40.5000,60.6875,-18.7500,0.28607177734375,0.64074707031250,0.08666992187500,-0.70715332031250,moving
203.97,3,0,3,3,0.2300,-6.6100,-3.1700,27.2500,74.0000,-31.4375,0.28198242187500,0.64575195312500,0.08862304687500,-0.70397949218750,moving
203.98,3,0,3,3,0.0800,-6.4900,-2.6700,19.8125,82.9375,-42.9375,0.27752685546875,0.65100097656250,0.09191894531250,-0.70050048828125,moving
203.99,3,0,3,3,-0.2500,-6.2600,-1.9500,26.0625,95.1875,-53.1875,0.27197265625000,0.65704345703125,0.09564208984375,-0.69653320312500,moving
204.00,3,0,3,3,-1.5600,-5.3400,-0.6400,58.5000,111.5625,-58.3125,0.26409912109375,0.66467285156250,0.09814453125000,-0.69195556640625,moving
204.01,3,0,3,3,-1.7600,-4.6700,0.5800,114.8125,110.0000,-59.6250,0.25280761718750,0.67340087890625,0.09722900390625,-0.68786621093750,moving
204.02,3,0,3,3,-1.9300,-4.2400,1.8400,165.0625,81.8125,-61.3125,0.23864746093750,0.68133544921875,0.09277343750000,-0.68566894531250,moving
204.03,3,0,3,3,-2.6300,-4.1900,2.9100,185.1875,31.0000,-63.9375,0.22351074218750,0.68646240234375,0.08618164062500,-0.68658447265625,moving
204.04,3,0,3,3,-2.0700,-3.3500,3.2400,171.0000,8.5625,-75.6875,0.20855712890625,0.68963623046875,0.08068847656250,-0.68872070312500,moving
204.05,3,0,3,3,-1.3900,-3.3900,2.6100,137.3750,10.6875,-95.0000,0.19445800781250,0.69207763671875,0.07843017578125,-0.69073486328125,moving
204.06,3,0,3,3,-0.9100,-3.3800,1.5300,105.4375,5.9375,-111.8125,0.18121337890625,0.69342041015625,0.07897949218750,-0.69293212890625,moving
204.07,3,0,3,3,-0.8400,-2.9900,0.7700,84.0625,-14.4375,-122.2500,0.16876220703125,0.69293212890625,0.08111572265625,-0.69622802734375,moving
204.08,3,0,3,3,-1.0400,-1.6900,0.3000,68.3750,-28.4375,-129.8125,0.15686035156250,0.69122314453125,0.08447265625000,-0.70031738281250,moving
204.09,3,0,3,3,-1.2700,-0.5100,0.0300,54.1250,-36.9375,-132.0625,0.14575195312500,0.68872070312500,0.08868408203125,-0.70471191406250,moving
204.10,3,0,3,3,-1.3500,0.7500,-0.2000,44.5000,-52.9375,-128.3125,0.13549804687500,0.68493652343750,0.09301757812500,-0.70977783203125,moving
204.11,3,0,3,3,-1.3500,0.7500,-0.2000,44.5000,-52.9375,-128.3125,0.13549804687500,0.68493652343750,0.09301757812500,-0.70977783203125,moving
204.11,3,0,3,3,-1.3600,2.1800,-0.2500,41.8125,-64.5000,-122.1250,0.12591552734375,0.68041992187500,0.09698486328125,-0.71539306640625,moving
204.12,3,0,3,3,-1.9200,4.6400,0.0700,37.3125,-66.2500,-116.0000,0.11694335937500,0.67565917968750,0.10089111328125,-0.72088623046875,moving
204.13,3,0,3,3,-2.3300,6.2300,0.0600,24.5000,-55.4375,-108.2500,0.10913085937500,0.67138671875000,0.10522460937500,-0.72540283203125,moving
204.14,3,0,3,3,-2.9300,7.7300,0.3300,10.5625,-27.0625,-92.6250,0.10284423828125,0.66888427734375,0.10974121093750,-0.72796630859375,moving
204.15,3,0,3,3,-3.9000,9.3900,0.5000,12.1250,16.0000,-65.6875,0.09777832031250,0.66937255859375,0.11297607421875,-0.72772216796875,moving
204.16,3,0,3,3,-5.7200,13.1200,0.1400,25.7500,43.3125,-34.4375,0.09362792968750,0.67199707031250,0.11376953125000,-0.72570800781250,moving
204.17,3,0,3,3,-5.8000,14.4900,0.1100,39.3125,40.3125,-14.8750,0.08996582031250,0.67474365234375,0.11248779296875,-0.72387695312500,moving
204.18,3,0,3,3,-4.6700,14.9200,-0.0900,44.2500,15.5000,-13.8125,0.08630371093750,0.67590332031250,0.11065673828125,-0.72351074218750,moving
204.19,3,0,3,3,-0.1300,11.8500,0.4800,41.8750,-23.9375,-20.2500,0.08276367187500,0.67449951171875,0.10906982421875,-0.72546386718750,moving
204.20,3,0,3,3,1.9000,8.8300,1.1600,34.3125,-48.8125,-14.3125,0.08032226562500,0.67150878906250,0.10736083984375,-0.72875976562500,moving
204.21,3,0,3,3,2.3400,7.3800,2.0100,33.1250,-40.5625,3.6250,0.07897949218750,0.66918945312500,0.10473632812500,-0.73138427734375,moving
204.22,3,0,3,3,1.4500,6.7100,2.8700,19.3750,-0.1250,22.0625,0.07928466796875,0.66955566406250,0.10217285156250,-0.73144531250000,moving
204.23,3,0,3,3,-2.0500,5.2200,2.4000,-7.8125,38.5000,38.1250,0.08184814453125,0.67230224609375,0.10070800781250,-0.72882080078125,moving
204.24,3,0,3,3,-3.3100,5.4600,1.8800,-33.3125,41.3750,52.3125,0.08679199218750,0.67510986328125,0.10003662109375,-0.72570800781250,moving
204.25,3,0,3,3,-3.5700,5.9000,1.4800,-50.3125,27.7500,62.7500,0.09350585937500,0.67700195312500,0.09967041015625,-0.72314453125000,moving
204.26,3,0,3,3,-3.3800,6.0000,1.2800,-68.0625,18.3125,70.4375,0.10186767578125,0.67822265625000,0.09991455078125,-0.72088623046875,moving
204.27,3,0,3,3,-3.5500,6.3200,0.8600,-82.2500,13.6875,81.2500,0.11175537109375,0.67901611328125,0.10040283203125,-0.71856689453125,moving
