timestamp,calib_mag,calib_accel,calib_gyro,calib_sys,lacc_x,lacc_y,lacc_z,gyro_x,gyro_y,gyro_z,quat_w,quat_x,quat_y,quat_z,label
116.47,3,1,3,0,-0.5400,3.4300,-1.7100,-7.3750,13.5625,-19.6250,0.60186767578125,-0.21105957031250,-0.60076904296875,-0.48199462890625,moving
116.48,3,1,3,0,-0.5400,3.5200,-1.9000,-6.0000,9.2500,-29.1875,0.60101318359375,-0.20947265625000,-0.60058593750000,-0.48400878906250,moving
116.49,3,1,3,0,-0.5500,3.4700,-1.8100,-7.0000,4.5000,-37.5625,0.59948730468750,-0.20764160156250,-0.60070800781250,-0.48645019531250,moving
116.50,3,1,3,0,-0.5400,3.3800,-1.5300,-8.9375,0.6250,-45.1875,0.59741210937500,-0.20568847656250,-0.60113525390625,-0.48925781250000,moving
116.51,3,1,3,0,-1.1000,2.7700,-0.7300,-8.5000,-0.7500,-52.5625,0.59497070312500,-0.20343017578125,-0.60174560546875,-0.49249267578125,moving
116.52,3,1,3,0,-1.2500,2.1400,-0.5600,-5.8750,0.8125,-59.8750,0.59234619140625,-0.20050048828125,-0.60253906250000,-0.49591064453125,moving
116.53,3,1,3,0,-1.5200,1.2700,-0.5200,-6.6875,1.8750,-65.5625,0.58941650390625,-0.19732666015625,-0.60327148437500,-0.49969482421875,moving
116.54,3,1,3,0,-1.6800,0.2800,-0.5600,-9.8750,3.5000,-68.6250,0.58642578125000,-0.19403076171875,-0.60388183593750,-0.50378417968750,moving
116.55,3,1,3,0,-2.0800,-1.7500,-0.9900,-14.7500,4.6875,-69.6875,0.58331298828125,-0.19091796875000,-0.60412597656250,-0.50823974609375,moving
116.56,3,1,3,0,-2.0500,-2.6600,-1.2100,-22.3125,2.8750,-68.3750,0.58007812500000,-0.18829345703125,-0.60412597656250,-0.51293945312500,moving
116.57,3,1,3,0,-2.2000,-3.4400,-1.3100,-26.3750,-0.3750,-65.3750,0.57666015625000,-0.18615722656250,-0.60406494140625,-0.51763916015625,moving
116.58,3,1,3,0,-2.1000,-4.3100,-1.4900,-23.3750,-2.1875,-62.0000,0.57336425781250,-0.18414306640625,-0.60412597656250,-0.52191162109375,moving
116.59,3,1,3,0,-1.6700,-5.7300,-2.0900,-13.7500,-4.6250,-56.5625,0.57031250000000,-0.18200683593750,-0.60461425781250,-0.52545166015625,moving
116.60,3,1,3,0,-1.6400,-6.4400,-2.5300,-2.0000,-4.6250,-47.6250,0.56781005859375,-0.17980957031250,-0.60552978515625,-0.52783203125000,moving
116.61,3,1,3,0,-1.5800,-7.1700,-2.9200,9.0625,-5.6250,-37.1875,0.56591796875000,-0.17767333984375,-0.60681152343750,-0.52911376953125,moving
116.62,3,1,3,0,-0.7200,-8.6400,-3.9500,20.7500,-4.0000,-23.5625,0.56494140625000,-0.17553710937500,-0.60833740234375,-0.52911376953125,moving
116.63,3,1,3,0,0.1300,-8.8000,-3.8000,37.1875,-4.3125,-9.0625,0.56481933593750,-0.17346191406250,-0.61041259765625,-0.52746582031250,moving
116.64,3,1,3,0,1.1400,-9.0000,-3.1000,52.8750,-10.6250,6.5625,0.56536865234375,-0.17169189453125,-0.61328125000000,-0.52416992187500,moving
116.65,3,1,3,0,2.0100,-9.0800,-2.0000,56.4375,-18.9375,21.0000,0.56616210937500,-0.17089843750000,-0.61651611328125,-0.51977539062500,moving
116.66,3,1,3,0,3.1600,-8.0700,1.3400,42.0000,-32.0625,30.5000,0.56640625000000,-0.17193603515625,-0.61950683593750,-0.51550292968750,moving
116.67,3,1,3,0,3.1600,-8.0700,1.3400,42.0000,-32.0625,30.5000,0.56640625000000,-0.17193603515625,-0.61950683593750,-0.51550292968750,moving
116.67,3,1,3,0,3.4700,-6.0700,3.0700,18.0625,-46.0000,40.2500,0.56604003906250,-0.17535400390625,-0.62200927734375,-0.51184082031250,moving
116.68,3,1,3,0,4.1000,-4.0400,4.1200,2.3750,-48.3750,53.3125,0.56579589843750,-0.18029785156250,-0.62365722656250,-0.50830078125000,moving
116.69,3,1,3,0,4.9100,-2.7000,4.5200,3.1250,-38.5625,69.6875,0.56683349609375,-0.18566894531250,-0.62463378906250,-0.50402832031250,moving
116.70,3,1,3,0,4.8100,-1.8700,2.6900,7.0000,-21.1250,84.5000,0.56951904296875,-0.19091796875000,-0.62457275390625,-0.49908447265625,moving
116.71,3,1,3,0,3.7400,-1.8500,1.4400,4.1250,-4.8125,96.2500,0.57354736328125,-0.19616699218750,-0.62335205078125,-0.49395751953125,moving
116.72,3,1,3,0,2.7300,-1.7100,0.5900,3.8125,1.1875,103.4375,0.57812500000000,-0.20159912109375,-0.62164306640625,-0.48852539062500,moving
116.73,3,1,3,0,1.7000,-0.9900,-0.1400,7.2500,-0.1250,105.9375,0.58276367187500,-0.20703125000000,-0.62005615234375,-0.48272705078125,moving
116.74,3,1,3,0,1.3100,-0.3300,-0.2600,14.1250,0.0625,107.8125,0.58752441406250,-0.21215820312500,-0.61871337890625,-0.47644042968750,moving
116.75,3,1,3,0,1.0500,0.7000,0.0000,22.9375,-9.5625,107.4375,0.59191894531250,-0.21722412109375,-0.61810302734375,-0.46948242187500,moving
116.78,3,1,3,0,0.0300,5.3900,0.6700,18.0625,-17.5000,93.5625,0.59887695312500,-0.22723388671875,-0.61767578125000,-0.45635986328125,moving
116.78,3,1,3,0,-0.1400,7.0000,0.8700,17.6250,-21.0000,75.6875,0.60107421875000,-0.23120117187500,-0.61791992187500,-0.45098876953125,moving
116.79,3,1,3,0,-0.5000,8.1800,1.1600,25.9375,-22.8125,55.0000,0.60253906250000,-0.23376464843750,-0.61901855468750,-0.44622802734375,moving
116.80,3,1,3,0,-1.1400,9.1800,1.4600,49.5625,-25.1250,37.2500,0.60363769531250,-0.23413085937500,-0.62152099609375,-0.44104003906250,moving
116.81,3,1,3,0,-1.4300,8.6800,2.7000,73.2500,-25.6875,27.0000,0.60479736328125,-0.23278808593750,-0.62506103515625,-0.43511962890625,moving
116.82,3,1,3,0,-0.8200,8.1000,3.0300,85.5000,-16.5000,19.8750,0.60638427734375,-0.22998046875000,-0.62878417968750,-0.42901611328125,moving
116.83,3,1,3,0,0.4200,5.8500,2.9200,75.8125,-2.8125,3.8125,0.60784912109375,-0.22625732421875,-0.63165283203125,-0.42462158203125,moving
116.84,3,1,3,0,0.7300,5.6700,2.1700,56.3750,10.6250,-16.5000,0.60894775390625,-0.22198486328125,-0.63348388671875,-0.42260742187500,moving
116.85,3,1,3,0,0.2600,5.3800,1.3700,36.8750,27.6250,-32.0625,0.60998535156250,-0.21722412109375,-0.63403320312500,-0.42279052734375,moving
116.86,3,1,3,0,-0.3400,4.9000,0.2700,19.3125,44.1875,-45.5000,0.61114501953125,-0.21203613281250,-0.63323974609375,-0.42498779296875,moving
116.87,3,1,3,0,-1.0400,4.6100,-0.9700,8.5000,48.3125,-54.0625,0.61193847656250,-0.20672607421875,-0.63195800781250,-0.42828369140625,moving
116.88,3,1,3,0,-1.1300,4.3700,-1.8000,0.0000,37.5625,-61.1250,0.61169433593750,-0.20196533203125,-0.63104248046875,-0.43225097656250,moving
116.89,3,1,3,0,-1.2800,4.2700,-2.0800,-1.8125,29.6250,-69.8750,0.61065673828125,-0.19708251953125,-0.63061523437500,-0.43658447265625,moving
116.90,3,1,3,0,-1.1500,4.3800,-2.1200,-3.2500,19.2500,-81.4375,0.60852050781250,-0.19201660156250,-0.63079833984375,-0.44146728515625,moving
116.91,3,1,3,0,-1.2400,4.0400,-1.7300,-3.1875,7.0625,-91.6250,0.60528564453125,-0.18682861328125,-0.63183593750000,-0.44665527343750,moving
116.92,3,1,3,0,-1.3200,2.5000,-0.4400,4.4375,-5.5625,-96.6250,0.60125732421875,-0.18145751953125,-0.63385009765625,-0.45141601562500,moving
116.92,3,1,3,0,-1.3200,2.5000,-0.4400,4.4375,-5.5625,-96.6250,0.60125732421875,-0.18145751953125,-0.63385009765625,-0.45141601562500,moving
116.93,3,1,3,0,-1.2400,0.4700,1.1200,20.8750,-10.6875,-95.9375,0.59716796875000,-0.17541503906250,-0.63677978515625,-0.45513916015625,moving
116.94,3,1,3,0,-0.7000,-1.8000,2.2200,23.0000,-6.2500,-89.5625,0.59356689453125,-0.16949462890625,-0.63934326171875,-0.45843505859375,moving
116.95,3,1,3,0,0.2000,-5.5300,1.7800,12.6250,10.1250,-77.9375,0.59118652343750,-0.16400146484375,-0.64050292968750,-0.46191406250000,moving
116.96,3,1,3,0,0.8000,-6.8400,0.6300,-6.1875,16.7500,-68.1250,0.58929443359375,-0.15985107421875,-0.64031982421875,-0.46600341796875,moving
116.97,3,1,3,0,1.5700,-7.8400,-0.8500,-23.0000,14.5625,-55.0625,0.58752441406250,-0.15734863281250,-0.63940429687500,-0.47033691406250,moving
116.98,3,1,3,0,2.6300,-8.4800,-1.5700,-25.7500,9.4375,-36.2500,0.58618164062500,-0.15625000000000,-0.63836669921875,-0.47381591796875,moving
116.99,3,1,3,0,4.0700,-8.2100,-3.2000,-25.1250,9.7500,-14.4375,0.58581542968750,-0.15631103515625,-0.63702392578125,-0.47607421875000,moving
117.00,3,1,3,0,4.2600,-7.0800,-3.2500,-27.4375,6.9375,4.9375,0.58599853515625,-0.15771484375000,-0.63543701171875,-0.47741699218750,moving
117.01,3,1,3,0,3.8700,-6.0500,-3.0300,-38.7500,-4.5625,16.4375,0.58593750000000,-0.16076660156250,-0.63385009765625,-0.47863769531250,moving
117.02,3,1,3,0,1.8800,-5.4200,-2.2600,-52.5625,-17.8750,22.7500,0.58514404296875,-0.16546630859375,-0.63220214843750,-0.48016357421875,moving
117.03,3,1,3,0,1.3600,-5.4700,-1.6200,-54.1875,-29.6250,29.9375,0.58398437500000,-0.17114257812500,-0.63104248046875,-0.48114013671875,moving
117.04,3,1,3,0,0.7100,-5.9200,-1.6600,-51.4375,-29.8125,37.7500,0.58312988281250,-0.17712402343750,-0.62982177734375,-0.48156738281250,moving
117.05,3,1,3,0,0.5300,-6.0300,-1.5800,-47.5000,-32.3750,48.5625,0.58264160156250,-0.18359375000000,-0.62872314453125,-0.48120117187500,moving
117.06,3,1,3,0,1.1300,-6.0100,-1.2600,-37.3750,-40.8125,62.3125,0.58239746093750,-0.19067382812500,-0.62817382812500,-0.47937011718750,moving
117.07,3,1,3,0,1.3700,-5.5100,-1.0700,-28.5000,-40.0625,78.3125,0.58300781250000,-0.19812011718750,-0.62768554687500,-0.47625732421875,moving
117.08,3,1,3,0,1.6500,-4.4700,-0.6600,-19.5000,-38.6875,91.8750,0.58435058593750,-0.20574951171875,-0.62725830078125,-0.47192382812500,moving
117.11,3,1,3,0,1.4300,-0.0600,0.6800,10.4375,-35.6875,102.3750,0.58868408203125,-0.21966552734375,-0.62744140625000,-0.45989990234375,moving
117.11,3,1,3,0,0.9900,1.4400,0.7600,23.7500,-32.3750,100.2500,0.59136962890625,-0.22528076171875,-0.62811279296875,-0.45275878906250,moving
117.12,3,1,3,0,0.4800,2.7600,0.9600,32.8125,-32.4375,94.1875,0.59393310546875,-0.23004150390625,-0.62921142578125,-0.44543457031250,moving
117.13,3,1,3,0,-0.0100,5.8900,1.4800,36.8750,-34.8750,85.1250,0.59606933593750,-0.23419189453125,-0.63073730468750,-0.43823242187500,moving
117.14,3,1,3,0,-0.0500,7.3200,2.4400,37.2500,-37.0000,74.4375,0.59765625000000,-0.23779296875000,-0.63250732421875,-0.43151855468750,moving
117.15,3,1,3,0,-0.1900,8.7900,3.7800,37.4375,-40.3750,61.5000,0.59851074218750,-0.24078369140625,-0.63476562500000,-0.42535400390625,moving
117.16,3,1,3,0,-0.4300,9.8200,4.7600,51.6250,-36.0000,48.5000,0.59936523437500,-0.24212646484375,-0.63751220703125,-0.41918945312500,moving
117.17,3,1,3,0,-0.5500,9.6900,5.1600,60.6250,-26.8125,34.7500,0.60040283203125,-0.24188232421875,-0.64038085937500,-0.41339111328125,moving
117.18,3,1,3,0,-0.5500,9.6900,5.1600,60.6250,-26.8125,34.7500,0.60040283203125,-0.24188232421875,-0.64038085937500,-0.41339111328125,moving
117.18,3,1,3,0,-0.3100,8.3700,4.6000,58.4375,-13.7500,19.9375,0.60162353515625,-0.24041748046875,-0.64276123046875,-0.40881347656250,moving
117.19,3,1,3,0,-0.0100,7.1000,3.2100,39.6875,3.2500,3.5625,0.60272216796875,-0.23840332031250,-0.64392089843750,-0.40649414062500,moving
117.20,3,1,3,0,-0.1000,7.1900,1.3300,14.8125,21.1250,-14.7500,0.60369873046875,-0.23602294921875,-0.64361572265625,-0.40686035156250,moving
117.21,3,1,3,0,-0.5600,6.2000,-0.6400,2.6875,26.0625,-28.0000,0.60424804687500,-0.23339843750000,-0.64294433593750,-0.40875244140625,moving
117.22,3,1,3,0,-1.0800,5.9400,-1.4600,-3.1875,25.3125,-36.7500,0.60430908203125,-0.23052978515625,-0.64221191406250,-0.41137695312500,moving
117.23,3,1,3,0,-1.3500,5.9900,-1.9000,-10.9375,17.7500,-43.1875,0.60351562500000,-0.22802734375000,-0.64178466796875,-0.41467285156250,moving
117.24,3,1,3,0,-1.5900,7.7400,-1.5800,-25.5000,6.6250,-52.6250,0.60144042968750,-0.22619628906250,-0.64154052734375,-0.41900634765625,moving
117.25,3,1,3,0,-1.6900,8.4200,-0.8200,-36.5000,-4.1875,-66.3125,0.59802246093750,-0.22448730468750,-0.64172363281250,-0.42443847656250,moving
117.26,3,1,3,0,-1.7600,8.2800,-0.0300,-31.1875,-9.9375,-81.6250,0.59381103515625,-0.22186279296875,-0.64263916015625,-0.43029785156250,moving
117.27,3,1,3,0,-1.8300,7.2100,0.4700,-18.6250,-4.9375,-94.3125,0.58959960937500,-0.21771240234375,-0.64404296875000,-0.43615722656250,moving
117.28,3,1,3,0,-0.8700,2.9600,0.7400,-8.3750,7.1875,-102.6875,0.58587646484375,-0.21203613281250,-0.64526367187500,-0.44207763671875,moving
117.29,3,1,3,0,-0.1700,0.7800,0.5700,-11.3125,15.0625,-109.0625,0.58227539062500,-0.20581054687500,-0.64605712890625,-0.44854736328125,moving
117.30,3,1,3,0,0.2800,-1.2700,0.7400,-23.1250,19.7500,-110.6875,0.57861328125000,-0.19995117187500,-0.64611816406250,-0.45587158203125,moving
117.31,3,1,3,0,0.5300,-3.3500,1.0300,-26.3750,24.6250,-108.5000,0.57513427734375,-0.19415283203125,-0.64569091796875,-0.46325683593750,moving
117.32,3,1,3,0,1.0300,-6.7600,0.7200,-24.1250,27.1250,-103.1250,0.57208251953125,-0.18835449218750,-0.64508056640625,-0.47027587890625,moving
117.33,3,1,3,0,1.5700,-8.2600,-0.0500,-23.2500,27.5000,-94.9375,0.56927490234375,-0.18304443359375,-0.64428710937500,-0.47680664062500,moving
117.34,3,1,3,0,2.3300,-9.2000,-1.0800,-23.5625,29.2500,-81.3125,0.56713867187500,-0.17834472656250,-0.64312744140625,-0.48260498046875,moving
117.35,3,1,3,0,3.4600,-9.8700,-2.8500,-16.3750,28.7500,-61.4375,0.56591796875000,-0.17449951171875,-0.64196777343750,-0.48706054687500,moving
117.36,3,1,3,0,3.6400,-10.1400,-2.8200,-4.8125,26.5000,-37.3750,0.56573486328125,-0.17150878906250,-0.64099121093750,-0.48956298828125,moving
117.37,3,1,3,0,3.3500,-10.6800,-2.6000,2.2500,19.0000,-16.3750,0.56610107421875,-0.16961669921875,-0.64038085937500,-0.49053955078125,moving
117.38,3,1,3,0,2.9100,-10.6600,-2.1600,0.3125,10.6875,-4.7500,0.56652832031250,-0.16888427734375,-0.63995361328125,-0.49096679687500,moving
117.39,3,1,3,0,1.3100,-8.1900,-1.8200,-10.7500,5.5625,4.5625,0.56683349609375,-0.16949462890625,-0.63909912109375,-0.49139404296875,moving
117.40,3,1,3,0,1.1800,-6.8400,-1.5900,-19.7500,1.9375,17.0625,0.56744384765625,-0.17132568359375,-0.63793945312500,-0.49169921875000,moving
117.42,3,1,3,0,1.1800,-6.5800,-2.0900,-24.2500,-4.9375,45.7500,0.56958007812500,-0.17840576171875,-0.63507080078125,-0.49035644531250,moving
117.43,3,1,3,0,1.2700,-6.8600,-1.7300,-21.7500,-17.5625,60.3750,0.57086181640625,-0.18359375000000,-0.63403320312500,-0.48828125000000,moving
117.44,3,1,3,0,1.2700,-6.8600,-1.7300,-21.7500,-17.5625,60.3750,0.57086181640625,-0.18359375000000,-0.63403320312500,-0.48828125000000,moving
117.44,3,1,3,0,1.0000,-6.5500,-1.8600,-21.6875,-18.0000,76.9375,0.57275390625000,-0.18969726562500,-0.63275146484375,-0.48535156250000,moving
117.45,3,1,3,0,0.7500,-5.8900,-2.0800,-20.1250,-17.5625,92.1875,0.57537841796875,-0.19659423828125,-0.63122558593750,-0.48150634765625,moving
117.46,3,1,3,0,0.5300,-4.3600,-2.3100,-10.3125,-21.2500,104.1875,0.57836914062500,-0.20379638671875,-0.63006591796875,-0.47644042968750,moving
117.47,3,1,3,0,0.6900,-2.8800,-2.2100,4.0625,-24.5000,111.1875,0.58172607421875,-0.21075439453125,-0.62945556640625,-0.47009277343750,moving
117.48,3,1,3,0,0.8400,-1.8200,-1.5900,18.0625,-26.1250,115.7500,0.58538818359375,-0.21728515625000,-0.62933349609375,-0.46270751953125,moving
117.49,3,1,3,0,0.8800,-0.3200,-0.9300,32.0000,-28.5625,118.1875,0.58917236328125,-0.22332763671875,-0.62982177734375,-0.45428466796875,moving
117.50,3,1,3,0,1.2300,2.4400,-0.1800,41.2500,-29.0000,116.3125,0.59295654296875,-0.22875976562500,-0.63061523437500,-0.44537353515625,moving
117.51,3,1,3,0,1.1400,3.8300,0.1400,49.9375,-32.0000,110.9375,0.59649658203125,-0.23358154296875,-0.63195800781250,-0.43621826171875,moving
117.52,3,1,3,0,0.7000,5.5500,0.9100,57.4375,-38.8125,100.7500,0.59930419921875,-0.23760986328125,-0.63409423828125,-0.42694091796875,moving
117.53,3,1,3,0,0.1000,6.7800,1.5900,53.3125,-46.8125,86.1875,0.60101318359375,-0.24139404296875,-0.63671875000000,-0.41845703125000,moving
117.54,3,1,3,0,-0.8900,9.1600,3.1600,42.6250,-52.8125,70.6875,0.60156250000000,-0.24499511718750,-0.63952636718750,-0.41125488281250,moving
117.55,3,1,3,0,-1.3500,9.9500,3.5300,37.4375,-53.4375,55.6250,0.60137939453125,-0.24810791015625,-0.64245605468750,-0.40502929687500,moving
117.56,3,1,3,0,-1.4000,10.1500,3.3300,33.6250,-44.3125,44.5000,0.60119628906250,-0.25042724609375,-0.64495849609375,-0.39984130859375,moving
117.57,3,1,3,0,-0.5400,9.7000,2.1700,24.2500,-30.8750,35.3750,0.60119628906250,-0.25219726562500,-0.64666748046875,-0.39593505859375,moving
117.58,3,1,3,0,0.1800,9.4100,1.8100,10.4375,-22.7500,22.2500,0.60089111328125,-0.25372314453125,-0.64776611328125,-0.39367675781250,moving
117.59,3,1,3,0,0.6700,9.3900,1.6900,-2.4375,-20.8125,6.3750,0.59991455078125,-0.25488281250000,-0.64862060546875,-0.39300537109375,moving
117.60,3,1,3,0,0.4700,8.7600,1.6000,-9.7500,-16.2500,-9.8125,0.59838867187500,-0.25537109375000,-0.64935302734375,-0.39373779296875,moving
117.61,3,1,3,0,-0.9900,7.6200,1.2700,-12.0625,-6.3750,-23.8125,0.59692382812500,-0.25488281250000,-0.64978027343750,-0.39556884765625,moving
117.62,3,1,3,0,-1.3800,7.3700,1.0400,-6.6250,-2.1250,-34.0000,0.59552001953125,-0.25335693359375,-0.65045166015625,-0.39764404296875,moving
117.63,3,1,3,0,-1.2700,7.3700,0.9800,-7.1875,4.3125,-44.1250,0.59405517578125,-0.25103759765625,-0.65093994140625,-0.40051269531250,moving
117.64,3,1,3,0,-0.7000,7.3200,1.0300,-11.8750,5.8750,-55.7500,0.59216308593750,-0.24822998046875,-0.65142822265625,-0.40423583984375,moving
117.65,3,1,3,0,0.0000,6.6300,1.0600,-16.3125,8.7500,-68.0625,0.58984375000000,-0.24487304687500,-0.65185546875000,-0.40887451171875,moving
117.66,3,1,3,0,0.4600,5.7800,1.3400,-20.3125,9.0625,-79.6875,0.58703613281250,-0.24102783203125,-0.65234375000000,-0.41436767578125,moving
117.67,3,1,3,0,0.5800,4.7600,1.1100,-32.2500,10.6250,-90.1250,0.58367919921875,-0.23712158203125,-0.65252685546875,-0.42108154296875,moving
117.68,3,1,3,0,0.5000,2.4800,0.0300,-50.7500,14.2500,-97.2500,0.57983398437500,-0.23358154296875,-0.65191650390625,-0.42919921875000,moving
117.69,3,1,3,0,0.6100,1.1700,0.3100,-59.8125,15.0625,-101.3750,0.57562255859375,-0.23022460937500,-0.65093994140625,-0.43804931640625,moving
117.70,3,1,3,0,0.6100,1.1700,0.3100,-59.8125,15.0625,-101.3750,0.57562255859375,-0.23022460937500,-0.65093994140625,-0.43804931640625,moving
117.70,3,1,3,0,0.6000,-0.2500,0.4600,-52.1875,13.8125,-106.0625,0.57128906250000,-0.22619628906250,-0.65039062500000,-0.44665527343750,moving
117.71,3,1,3,0,0.5200,-1.8200,0.3300,-47.8125,18.1250,-109.0625,0.56707763671875,-0.22161865234375,-0.64971923828125,-0.45520019531250,moving
117.72,3,1,3,0,0.4900,-4.5800,0.5400,-46.4375,25.6250,-107.6875,0.56329345703125,-0.21673583984375,-0.64868164062500,-0.46362304687500,moving
117.73,3,1,3,0,0.8700,-5.8100,0.4000,-46.9375,34.0625,-102.5000,0.56011962890625,-0.21185302734375,-0.64697265625000,-0.47198486328125,moving
117.75,3,1,3,0,2.1900,-7.9000,-0.8500,-56.6875,46.5000,-84.6250,0.55560302734375,-0.20318603515625,-0.64147949218750,-0.48840332031250,moving
117.76,3,1,3,0,2.6100,-8.4700,-1.4900,-61.0000,46.3125,-70.8750,0.55401611328125,-0.20013427734375,-0.63787841796875,-0.49609375000000,moving
117.77,3,1,3,0,2.7700,-9.2600,-2.3200,-58.7500,37.7500,-54.0625,0.55273437500000,-0.19830322265625,-0.63439941406250,-0.50262451171875,moving
117.78,3,1,3,0,2.9100,-9.8500,-2.8500,-42.8125,27.0000,-35.0000,0.55194091796875,-0.19726562500000,-0.63183593750000,-0.50720214843750,moving
117.79,3,1,3,0,2.3300,-11.5700,-4.3000,-25.1875,16.0000,-18.1250,0.55163574218750,-0.19677734375000,-0.63024902343750,-0.50970458984375,moving
117.80,3,1,3,0,2.2600,-11.5000,-4.7900,-4.6250,9.8125,-3.3750,0.55194091796875,-0.19635009765625,-0.62963867187500,-0.51031494140625,moving
117.81,3,1,3,0,2.0000,-11.6400,-5.0500,22.1875,3.3750,11.4375,0.55303955078125,-0.19580078125000,-0.63024902343750,-0.50854492187500,moving
117.82,3,1,3,0,1.8800,-11.3300,-4.8400,51.4375,7.7500,28.5625,0.55560302734375,-0.19451904296875,-0.63165283203125,-0.50445556640625,moving
117.83,3,1,3,0,1.8000,-9.7800,-2.8500,63.7500,8.8750,44.3125,0.55914306640625,-0.19354248046875,-0.63323974609375,-0.49890136718750,moving
117.84,3,1,3,0,1.3400,-8.1100,-1.4200,52.4375,7.8125,54.6250,0.56280517578125,-0.19366455078125,-0.63421630859375,-0.49346923828125,moving
117.85,3,1,3,0,1.0200,-6.3300,-0.4600,28.8125,0.2500,66.9375,0.56616210937500,-0.19598388671875,-0.63427734375000,-0.48852539062500,moving
117.86,3,1,3,0,0.5300,-4.1100,0.6400,14.6875,-7.3750,79.5000,0.56945800781250,-0.20001220703125,-0.63391113281250,-0.48364257812500,moving
117.87,3,1,3,0,0.3600,-3.1200,0.7800,11.8750,-13.3125,90.1250,0.57269287109375,-0.20501708984375,-0.63348388671875,-0.47821044921875,moving
117.88,3,1,3,0,0.4400,-2.5200,0.4200,12.5000,-15.1250,98.3125,0.57617187500000,-0.21051025390625,-0.63293457031250,-0.47229003906250,moving
117.89,3,1,3,0,0.7800,-1.9600,0.1700,14.1875,-12.8750,107.1250,0.58013916015625,-0.21630859375000,-0.63220214843750,-0.46582031250000,moving
117.90,3,1,3,0,0.9900,-0.4300,0.4800,14.3750,-12.4375,116.5625,0.58447265625000,-0.22253417968750,-0.63116455078125,-0.45880126953125,moving
117.91,3,1,3,0,0.8300,0.0800,0.0200,11.0000,-12.3750,123.0625,0.58892822265625,-0.22924804687500,-0.62982177734375,-0.45159912109375,moving
117.92,3,1,3,0,0.7200,0.2400,-0.6500,3.1875,-17.5000,123.7500,0.59289550781250,-0.23663330078125,-0.62829589843750,-0.44464111328125,moving
117.93,3,1,3,0,0.2300,0.9300,-1.1100,-4.0625,-26.3750,117.8125,0.59594726562500,-0.24438476562500,-0.62701416015625,-0.43817138671875,moving
117.94,3,1,3,0,-0.3900,2.8900,-1.1300,-2.9375,-34.8750,109.5000,0.59814453125000,-0.25189208984375,-0.62634277343750,-0.43182373046875,moving
117.95,3,1,3,0,-0.6000,4.0100,-0.8100,-1.0000,-40.7500,99.6875,0.59960937500000,-0.25897216796875,-0.62622070312500,-0.42578125000000,moving
117.96,3,1,3,0,-0.6000,4.0100,-0.8100,-1.0000,-40.7500,99.6875,0.59960937500000,-0.25897216796875,-0.62622070312500,-0.42578125000000,moving
117.96,3,1,3,0,-0.4300,5.1900,-0.1800,5.4375,-41.9375,91.6250,0.60083007812500,-0.26525878906250,-0.62652587890625,-0.41967773437500,moving
117.97,3,1,3,0,-0.7400,7.0200,0.9300,14.6250,-38.5000,81.1875,0.60205078125000,-0.27038574218750,-0.62713623046875,-0.41369628906250,moving
117.98,3,1,3,0,-1.2700,7.6700,1.1600,21.1250,-36.0625,71.5625,0.60314941406250,-0.27447509765625,-0.62811279296875,-0.40783691406250,moving
117.99,3,1,3,0,-1.5500,8.1500,1.0600,17.8125,-34.1875,64.1250,0.60400390625000,-0.27832031250000,-0.62896728515625,-0.40264892578125,moving
118.00,3,1,3,0,-1.5600,8.6000,0.9700,4.7500,-33.7500,54.5625,0.60418701171875,-0.28222656250000,-0.62957763671875,-0.39868164062500,moving
118.01,3,1,3,0,-0.8300,10.2600,0.7300,-10.1250,-37.9375,44.2500,0.60333251953125,-0.28656005859375,-0.63012695312500,-0.39593505859375,moving
118.02,3,1,3,0,-0.5900,11.1200,0.9400,-27.1250,-43.3750,31.3125,0.60137939453125,-0.29119873046875,-0.63067626953125,-0.39471435546875,moving
118.03,3,1,3,0,-0.8500,11.7600,1.1400,-41.6875,-47.2500,13.3125,0.59814453125000,-0.29571533203125,-0.63140869140625,-0.39508056640625,moving
118.04,3,1,3,0,-1.0900,11.8800,1.6000,-43.5000,-43.7500,-5.0625,0.59442138671875,-0.29925537109375,-0.63232421875000,-0.39660644531250,moving
118.05,3,1,3,0,-1.7600,10.6500,2.3800,-31.0000,-30.7500,-21.0625,0.59118652343750,-0.30072021484375,-0.63336181640625,-0.39862060546875,moving
118.08,3,1,3,0,-0.8600,7.3100,2.7800,-10.1250,-5.8125,-47.2500,0.58654785156250,-0.29803466796875,-0.63586425781250,-0.40356445312500,moving
118.08,3,1,3,0,0.1700,5.3300,3.3500,-22.5625,0.1875,-60.5000,0.58380126953125,-0.29577636718750,-0.63665771484375,-0.40795898437500,moving
118.09,3,1,3,0,0.8600,4.6800,2.9100,-32.0000,8.3750,-70.6250,0.58087158203125,-0.29315185546875,-0.63690185546875,-0.41357421875000,moving
118.10,3,1,3,0,1.3600,3.7400,1.8900,-34.4375,17.3125,-77.4375,0.57812500000000,-0.28991699218750,-0.63671875000000,-0.41986083984375,moving
118.11,3,1,3,0,1.7800,3.8000,0.4700,-38.1250,23.1250,-84.7500,0.57531738281250,-0.28619384765625,-0.63629150390625,-0.42687988281250,moving
118.12,3,1,3,0,1.8400,2.9600,-1.7400,-42.4375,28.7500,-91.7500,0.57238769531250,-0.28210449218750,-0.63555908203125,-0.43457031250000,moving
118.13,3,1,3,0,1.7600,2.1700,-1.8400,-38.8125,29.1250,-97.1250,0.56933593750000,-0.27752685546875,-0.63500976562500,-0.44232177734375,moving
118.14,3,1,3,0,1.7600,1.5500,-1.3500,-38.3750,24.0000,-100.9375,0.56579589843750,-0.27282714843750,-0.63476562500000,-0.45007324218750,moving
118.15,3,1,3,0,1.7600,1.7100,-0.2200,-44.7500,20.0000,-105.3125,0.56164550781250,-0.26837158203125,-0.63446044921875,-0.45825195312500,moving
118.16,3,1,3,0,1.6400,-0.0900,1.4300,-31.1250,21.3125,-110.3125,0.55761718750000,-0.26287841796875,-0.63476562500000,-0.46588134765625,moving
118.17,3,1,3,0,1.8000,-0.9200,1.5100,-33.5000,26.6250,-113.6875,0.55364990234375,-0.25708007812500,-0.63470458984375,-0.47387695312500,moving
118.18,3,1,3,0,2.1800,-1.5200,2.1300,-48.0000,38.0000,-113.6250,0.54992675781250,-0.25146484375000,-0.63336181640625,-0.48291015625000,moving
118.19,3,1,3,0,3.3800,-3.0600,2.4400,-41.3750,43.1250,-111.3125,0.54663085937500,-0.24542236328125,-0.63195800781250,-0.49145507812500,moving
118.20,3,1,3,0,3.6300,-3.9900,1.9000,-35.9375,46.9375,-110.0625,0.54370117187500,-0.23895263671875,-0.63049316406250,-0.49975585937500,moving
118.21,3,1,3,0,3.6300,-3.9900,1.9000,-35.9375,46.9375,-110.0625,0.54370117187500,-0.23895263671875,-0.63049316406250,-0.49975585937500,moving
118.21,3,1,3,0,3.7400,-4.8100,1.0500,-37.0625,49.3750,-108.4375,0.54089355468750,-0.23254394531250,-0.62878417968750,-0.50793457031250,moving
118.22,3,1,3,0,3.9100,-5.5900,-0.1700,-34.6875,51.4375,-103.0625,0.53839111328125,-0.22619628906250,-0.62683105468750,-0.51574707031250,moving
118.23,3,1,3,0,4.1700,-6.4900,-2.7000,-20.4375,55.2500,-93.1250,0.53680419921875,-0.21954345703125,-0.62512207031250,-0.52233886718750,moving
118.24,3,1,3,0,4.4200,-7.0800,-3.4000,2.6250,55.4375,-79.8750,0.53619384765625,-0.21252441406250,-0.62414550781250,-0.52697753906250,moving
118.25,3,1,3,0,4.6700,-7.9100,-3.7500,24.5625,50.9375,-63.9375,0.53649902343750,-0.20550537109375,-0.62408447265625,-0.52960205078125,moving
118.26,3,1,3,0,4.5200,-8.8600,-3.5000,36.5625,42.5000,-50.6875,0.53710937500000,-0.19909667968750,-0.62469482421875,-0.53070068359375,moving
118.27,3,1,3,0,4.5000,-9.3800,-3.0100,33.8750,31.1250,-36.8750,0.53765869140625,-0.19403076171875,-0.62542724609375,-0.53112792968750,moving
118.28,3,1,3,0,4.5100,-9.1800,-2.3700,26.1875,14.6875,-21.2500,0.53790283203125,-0.19097900390625,-0.62628173828125,-0.53094482421875,moving
118.29,3,1,3,0,4.3800,-7.9100,-1.4700,13.5000,0.9375,-8.0000,0.53784179687500,-0.18988037109375,-0.62701416015625,-0.53057861328125,moving
118.30,3,1,3,0,3.5100,-2.9900,0.6800,0.4375,-4.1875,6.2500,0.53790283203125,-0.19042968750000,-0.62707519531250,-0.53021240234375,moving
118.31,3,1,3,0,3.2600,-1.6900,1.2600,-7.3750,-3.5625,18.8125,0.53851318359375,-0.19201660156250,-0.62658691406250,-0.52966308593750,moving
118.32,3,1,3,0,2.9100,-1.0900,1.6000,-8.1875,-1.6250,27.6875,0.53955078125000,-0.19403076171875,-0.62579345703125,-0.52874755859375,stop
118.33,3,1,3,0,2.5900,-1.3600,1.5600,-7.1250,2.9375,33.9375,0.54119873046875,-0.19610595703125,-0.62475585937500,-0.52758789062500,stop
118.34,3,1,3,0,2.1100,-3.4500,0.5000,-7.1875,11.8125,39.1250,0.54351806640625,-0.19805908203125,-0.62316894531250,-0.52630615234375,stop
118.35,3,1,3,0,1.9000,-4.2300,-0.0500,-5.6250,18.6875,45.7500,0.54656982421875,-0.19995117187500,-0.62121582031250,-0.52471923828125,stop
118.36,3,1,3,0,1.4700,-4.4200,-0.4300,-0.6875,19.8750,53.5625,0.55010986328125,-0.20202636718750,-0.61926269531250,-0.52252197265625,stop
118.37,3,1,3,0,0.8700,-4.0100,-0.4100,2.6250,16.6875,60.3125,0.55383300781250,-0.20440673828125,-0.61755371093750,-0.51977539062500,stop
118.38,3,1,3,0,0.6800,-3.5000,-0.1300,4.6875,12.9375,66.3750,0.55761718750000,-0.20721435546875,-0.61590576171875,-0.51654052734375,stop
118.39,3,1,3,0,0.3300,-3.0600,0.2200,9.3750,9.1250,71.9375,0.56152343750000,-0.21026611328125,-0.61456298828125,-0.51263427734375,stop
118.40,3,1,3,0,-0.2500,-2.4700,0.4200,16.0000,8.8125,75.8125,0.56573486328125,-0.21319580078125,-0.61340332031250,-0.50817871093750,stop
118.41,3,1,3,0,-1.6000,-1.0700,0.5500,20.8750,8.5625,76.7500,0.56994628906250,-0.21594238281250,-0.61242675781250,-0.50341796875000,stop
118.42,3,1,3,0,-2.2300,-0.5900,0.3900,21.6250,11.0625,74.8125,0.57427978515625,-0.21838378906250,-0.61138916015625,-0.49871826171875,stop
118.43,3,1,3,0,-2.7500,-0.1700,0.0300,17.3125,13.0000,71.7500,0.57843017578125,-0.22082519531250,-0.61010742187500,-0.49438476562500,stop
118.44,3,1,3,0,-3.2500,0.4500,-0.2100,9.5000,12.8125,68.4375,0.58227539062500,-0.22344970703125,-0.60852050781250,-0.49066162109375,stop
118.45,3,1,3,0,-4.0800,0.7300,-0.6400,-2.8125,9.3125,64.7500,0.58551025390625,-0.22668457031250,-0.60662841796875,-0.48767089843750,stop
118.46,3,1,3,0,-4.5400,1.0300,-0.6900,-14.7500,2.6250,59.9375,0.58789062500000,-0.23052978515625,-0.60467529296875,-0.48541259765625,stop
118.47,3,1,3,0,-4.6300,1.3000,-0.8800,-19.2500,-1.1250,54.1250,0.58978271484375,-0.23443603515625,-0.60278320312500,-0.48358154296875,stop
118.47,3,1,3,0,-4.6300,1.3000,-0.8800,-19.2500,-1.1250,54.1250,0.58978271484375,-0.23443603515625,-0.60278320312500,-0.48358154296875,stop
118.48,3,1,3,0,-3.8800,2.3000,-1.1900,-23.0625,-2.8125,50.3125,0.59124755859375,-0.23840332031250,-0.60089111328125,-0.48211669921875,stop
118.49,3,1,3,0,-3.2800,2.8900,-1.3400,-28.2500,-8.1875,47.5625,0.59228515625000,-0.24273681640625,-0.59912109375000,-0.48095703125000,stop
118.50,3,1,3,0,-2.9200,3.5000,-1.2900,-34.6250,-16.1875,43.3125,0.59252929687500,-0.24749755859375,-0.59759521484375,-0.48016357421875,stop
118.51,3,1,3,0,-2.6800,3.9900,-1.1600,-37.2500,-23.0625,38.4375,0.59210205078125,-0.25244140625000,-0.59637451171875,-0.47961425781250,stop
118.52,3,1,3,0,-2.3200,4.8500,-0.9000,-35.5000,-25.3750,33.3125,0.59143066406250,-0.25708007812500,-0.59545898437500,-0.47912597656250,stop
118.53,3,1,3,0,-2.3500,4.8800,-0.7200,-26.8750,-23.9375,29.1875,0.59082031250000,-0.26098632812500,-0.59490966796875,-0.47845458984375,stop
118.54,3,1,3,0,-2.2500,4.4100,-0.3700,-13.2500,-18.6875,25.5625,0.59057617187500,-0.26379394531250,-0.59472656250000,-0.47741699218750,stop
118.55,3,1,3,0,-1.7900,3.4100,0.2500,6.4375,-8.4375,22.1875,0.59124755859375,-0.26495361328125,-0.59490966796875,-0.47570800781250,stop
118.56,3,1,3,0,0.3400,0.9700,1.1500,19.3125,0.7500,16.6875,0.59240722656250,-0.26483154296875,-0.59527587890625,-0.47387695312500,stop
118.57,3,1,3,0,1.1300,0.3700,1.3300,16.3750,9.6875,12.2500,0.59381103515625,-0.26422119140625,-0.59515380859375,-0.47259521484375,stop
118.58,3,1,3,0,1.6300,0.2400,1.2000,6.4375,14.0000,9.5000,0.59509277343750,-0.26379394531250,-0.59448242187500,-0.47210693359375,stop
118.59,3,1,3,0,1.1500,0.8800,0.5900,-2.2500,11.3125,6.8750,0.59588623046875,-0.26379394531250,-0.59362792968750,-0.47210693359375,stop
118.60,3,1,3,0,0.3200,1.0500,0.1300,-7.7500,12.6875,3.0625,0.59649658203125,-0.26385498046875,-0.59259033203125,-0.47265625000000,stop
118.61,3,1,3,0,-0.3100,1.2100,-0.2200,-9.0000,17.2500,0.2500,0.59716796875000,-0.26361083984375,-0.59130859375000,-0.47351074218750,stop
118.62,3,1,3,0,-0.5700,1.1200,-0.5800,-6.9375,20.0625,-0.9375,0.59802246093750,-0.26306152343750,-0.59002685546875,-0.47436523437500,stop
118.63,3,1,3,0,-0.2600,0.7200,-0.9300,-2.9375,21.0625,-0.3125,0.59906005859375,-0.26232910156250,-0.58880615234375,-0.47503662109375,stop
118.64,3,1,3,0,-0.3700,0.3900,-0.7700,2.3750,20.3125,1.6250,0.60021972656250,-0.26147460937500,-0.58776855468750,-0.47528076171875,stop
118.65,3,1,3,0,-0.4600,0.1800,-0.4000,6.1250,18.0625,2.6250,0.60137939453125,-0.26049804687500,-0.58703613281250,-0.47521972656250,stop
118.66,3,1,3,0,-0.6600,0.0100,-0.0200,7.2500,14.8125,3.1875,0.60241699218750,-0.25970458984375,-0.58648681640625,-0.47503662109375,stop
118.67,3,1,3,0,-0.6900,-0.1700,0.4800,6.1875,11.8750,2.0625,0.60327148437500,-0.25897216796875,-0.58605957031250,-0.47491455078125,stop
118.68,3,1,3,0,-0.6200,-0.1900,0.4500,2.3125,8.7500,0.1875,0.60375976562500,-0.25848388671875,-0.58569335937500,-0.47497558593750,stop
118.69,3,1,3,0,-0.4600,-0.0600,0.2800,-2.8750,5.8750,-1.5625,0.60394287109375,-0.25830078125000,-0.58532714843750,-0.47534179687500,stop
118.70,3,1,3,0,-0.1600,0.2400,-0.0900,-5.6875,3.3750,-2.3125,0.60388183593750,-0.25836181640625,-0.58496093750000,-0.47583007812500,stop
118.71,3,1,3,0,-0.1700,0.2000,-0.1000,-6.5625,1.6875,-2.3750,0.60369873046875,-0.25848388671875,-0.58465576171875,-0.47631835937500,stop
118.72,3,1,3,0,-0.1700,0.1100,-0.1000,-6.1250,1.0625,-2.5625,0.60351562500000,-0.25866699218750,-0.58435058593750,-0.47680664062500,stop
118.73,3,1,3,0,-0.0500,-0.0300,-0.1000,-4.1250,1.9375,-2.8125,0.60339355468750,-0.25866699218750,-0.58416748046875,-0.47723388671875,stop
118.74,3,1,3,0,-0.0300,-0.1600,-0.1900,-2.8750,3.0000,-3.0625,0.60339355468750,-0.25848388671875,-0.58398437500000,-0.47760009765625,stop
118.75,3,1,3,0,0.0000,-0.2200,-0.2600,-2.9375,4.8750,-3.0625,0.60345458984375,-0.25830078125000,-0.58361816406250,-0.47802734375000,stop
118.76,3,1,3,0,0.0800,-0.2500,-0.3400,-2.8750,6.0000,-2.7500,0.60357666015625,-0.25805664062500,-0.58325195312500,-0.47845458984375,stop
118.77,3,1,3,0,0.0900,-0.2000,-0.4000,-2.5625,7.0625,-2.0000,0.60375976562500,-0.25781250000000,-0.58282470703125,-0.47888183593750,stop
118.78,3,1,3,0,0.0300,0.1300,-0.4700,-1.6875,7.3750,-1.6250,0.60406494140625,-0.25750732421875,-0.58239746093750,-0.47918701171875,stop
118.79,3,1,3,0,0.0400,0.2200,-0.4200,-0.8750,6.6875,-2.0000,0.60406494140625,-0.25720214843750,-0.58233642578125,-0.47937011718750,stop
118.80,3,1,3,0,0.0400,0.1900,-0.4300,-0.2500,6.0000,-2.6250,0.60430908203125,-0.25683593750000,-0.58209228515625,-0.47967529296875,stop
118.81,3,1,3,0,-0.0300,-0.0100,-0.3900,0.8125,5.2500,-3.6250,0.60443115234375,-0.25634765625000,-0.58190917968750,-0.47991943359375,stop
118.82,3,1,3,0,-0.0800,-0.2000,-0.3600,2.2500,4.4375,-4.6875,0.60449218750000,-0.25585937500000,-0.58184814453125,-0.48016357421875,stop
118.83,3,1,3,0,-0.0900,-0.3000,-0.3800,3.5000,3.8750,-5.3125,0.60455322265625,-0.25518798828125,-0.58190917968750,-0.48034667968750,stop
118.84,3,1,3,0,-0.1100,-0.3500,-0.3600,4.0000,3.0000,-5.5625,0.60455322265625,-0.25457763671875,-0.58209228515625,-0.48052978515625,stop
118.85,3,1,3,0,-0.1200,-0.2600,-0.3700,4.2500,1.8750,-5.1875,0.60449218750000,-0.25402832031250,-0.58227539062500,-0.48059082031250,stop
118.86,3,1,3,0,-0.0300,-0.2600,-0.2900,5.0000,0.9375,-4.8750,0.60449218750000,-0.25347900390625,-0.58251953125000,-0.48065185546875,stop
118.87,3,1,3,0,0.0300,-0.2500,-0.2200,5.6250,-0.3750,-4.4375,0.60443115234375,-0.25292968750000,-0.58288574218750,-0.48059082031250,stop
118.88,3,1,3,0,0.0500,-0.1700,-0.0100,6.0625,-0.8125,-3.8750,0.60437011718750,-0.25256347656250,-0.58331298828125,-0.48040771484375,stop
118.89,3,1,3,0,0.0000,-0.1300,0.0500,6.1250,-0.7500,-3.4375,0.60430908203125,-0.25207519531250,-0.58367919921875,-0.48022460937500,stop
118.90,3,1,3,0,-0.1200,-0.0900,0.0500,4.9375,0.0000,-3.3750,0.60424804687500,-0.25164794921875,-0.58392333984375,-0.48016357421875,stop
118.91,3,1,3,0,-0.1700,-0.1100,-0.0100,3.3750,1.3750,-3.4375,0.60424804687500,-0.25122070312500,-0.58410644531250,-0.48022460937500,stop
118.92,3,1,3,0,-0.2000,-0.1200,-0.2000,0.5625,1.7500,-3.8125,0.60418701171875,-0.25091552734375,-0.58410644531250,-0.48040771484375,stop
118.93,3,1,3,0,-0.1700,-0.1500,-0.3000,0.5625,1.7500,-3.8125,0.60412597656250,-0.25061035156250,-0.58410644531250,-0.48059082031250,stop
118.94,3,1,3,0,-0.1500,-0.2000,-0.3100,0.0000,0.6250,-3.6875,0.60400390625000,-0.25048828125000,-0.58422851562500,-0.48077392578125,stop
118.95,3,1,3,0,-0.1400,-0.2800,-0.2900,-0.1875,-0.2500,-3.3750,0.60382080078125,-0.25030517578125,-0.58428955078125,-0.48095703125000,stop
118.96,3,1,3,0,-0.1500,-0.2000,-0.2900,-0.3125,-0.6875,-3.1875,0.60369873046875,-0.25018310546875,-0.58441162109375,-0.48107910156250,stop
118.97,3,1,3,0,-0.1000,-0.1600,-0.3200,-0.1875,-0.8125,-2.5000,0.60351562500000,-0.25006103515625,-0.58453369140625,-0.48120117187500,stop
118.98,3,1,3,0,-0.0600,-0.1200,-0.3000,-0.1875,-0.8125,-2.5000,0.60333251953125,-0.25006103515625,-0.58465576171875,-0.48126220703125,stop
118.99,3,1,3,0,-0.0700,-0.0800,-0.2400,-0.1875,-0.4375,-2.1875,0.60321044921875,-0.25000000000000,-0.58477783203125,-0.48132324218750,stop
119.00,3,1,3,0,-0.0900,-0.1200,-0.1600,-0.3750,-0.4375,-2.0000,0.60308837890625,-0.24993896484375,-0.58483886718750,-0.48138427734375,stop
119.01,3,1,3,0,-0.1200,-0.1900,-0.1600,-0.3125,0.0000,-1.8125,0.60302734375000,-0.24987792968750,-0.58496093750000,-0.48144531250000,stop
119.02,3,1,3,0,-0.1300,-0.1700,-0.1400,0.0000,0.9375,-1.8750,0.60296630859375,-0.24981689453125,-0.58496093750000,-0.48150634765625,stop
119.03,3,1,3,0,-0.0800,-0.2000,-0.1700,0.0000,0.9375,-1.8750,0.60296630859375,-0.24969482421875,-0.58496093750000,-0.48156738281250,stop
119.04,3,1,3,0,-0.0600,-0.2000,-0.2100,0.5000,0.7500,-2.1875,0.60290527343750,-0.24963378906250,-0.58502197265625,-0.48162841796875,stop
119.05,3,1,3,0,-0.1100,-0.1800,-0.1600,0.9375,0.0000,-2.3125,0.60278320312500,-0.24951171875000,-0.58514404296875,-0.48168945312500,stop
119.06,3,1,3,0,-0.1700,-0.2000,-0.2500,0.8750,-0.3125,-2.3125,0.60272216796875,-0.24945068359375,-0.58526611328125,-0.48168945312500,stop
119.07,3,1,3,0,-0.2100,-0.1200,-0.3200,1.3750,-0.3125,-2.0625,0.60260009765625,-0.24932861328125,-0.58538818359375,-0.48168945312500,stop
119.08,3,1,3,0,-0.2200,-0.0800,-0.2600,2.3125,-0.1875,-1.8750,0.60253906250000,-0.24914550781250,-0.58557128906250,-0.48162841796875,stop
119.09,3,1,3,0,-0.1800,-0.0100,-0.1500,2.6875,-0.6250,-1.9375,0.60247802734375,-0.24896240234375,-0.58581542968750,-0.48150634765625,stop
119.10,3,1,3,0,-0.1300,0.0300,0.0000,2.2500,-0.8125,-2.1875,0.60241699218750,-0.24877929687500,-0.58599853515625,-0.48150634765625,stop
119.11,3,1,3,0,-0.1200,0.0500,-0.0200,1.2500,-0.6250,-2.1875,0.60229492187500,-0.24859619140625,-0.58618164062500,-0.48150634765625,stop
119.12,3,1,3,0,-0.1200,0.0300,-0.1100,0.7500,-0.5000,-2.0625,0.60223388671875,-0.24847412109375,-0.58624267578125,-0.48156738281250,stop
119.13,3,1,3,0,-0.1000,0.0700,-0.1400,0.7500,-1.0625,-2.1250,0.60205078125000,-0.24835205078125,-0.58642578125000,-0.48162841796875,stop
119.14,3,1,3,0,-0.1200,0.1600,-0.0700,0.8125,-1.6250,-2.1875,0.60186767578125,-0.24822998046875,-0.58660888671875,-0.48168945312500,stop
119.15,3,1,3,0,-0.1700,0.1200,0.0300,0.9375,-2.0625,-2.1250,0.60168457031250,-0.24816894531250,-0.58679199218750,-0.48168945312500,stop
119.16,3,1,3,0,-0.1600,0.0900,0.1100,0.3125,-2.3125,-2.3750,0.60144042968750,-0.24810791015625,-0.58697509765625,-0.48181152343750,stop
119.17,3,1,3,0,-0.1300,0.0500,0.1400,-0.6250,-1.8750,-2.3750,0.60125732421875,-0.24804687500000,-0.58709716796875,-0.48193359375000,stop
119.18,3,1,3,0,-0.1100,0.0000,0.0000,-1.3125,-1.3750,-2.1875,0.60107421875000,-0.24804687500000,-0.58715820312500,-0.48211669921875,stop
119.19,3,1,3,0,-0.0900,-0.0300,-0.0400,-1.1875,-1.1250,-1.9375,0.60089111328125,-0.24810791015625,-0.58721923828125,-0.48223876953125,stop
119.20,3,1,3,0,-0.0900,0.0000,-0.0400,-1.0625,-1.1250,-2.0625,0.60070800781250,-0.24810791015625,-0.58728027343750,-0.48242187500000,stop
119.21,3,1,3,0,-0.1100,0.0500,0.0000,-0.6250,-1.2500,-2.1875,0.60052490234375,-0.24804687500000,-0.58734130859375,-0.48254394531250,stop
119.22,3,1,3,0,-0.0900,0.0400,0.0300,-0.0625,-1.5000,-2.5000,0.60034179687500,-0.24798583984375,-0.58752441406250,-0.48260498046875,stop
119.23,3,1,3,0,-0.0800,0.0200,0.0500,-0.3750,-1.8125,-2.6250,0.60015869140625,-0.24792480468750,-0.58764648437500,-0.48272705078125,stop
119.24,3,1,3,0,-0.0600,0.0300,0.0600,-0.6875,-1.5000,-2.8125,0.59991455078125,-0.24786376953125,-0.58776855468750,-0.48284912109375,stop
119.25,3,1,3,0,-0.0500,-0.0200,0.0100,-1.0625,-1.2500,-2.8125,0.59973144531250,-0.24786376953125,-0.58782958984375,-0.48303222656250,stop
119.26,3,1,3,0,-0.0500,-0.1000,0.0000,-0.8125,-1.3750,-2.6875,0.59948730468750,-0.24780273437500,-0.58795166015625,-0.48321533203125,stop
119.27,3,1,3,0,-0.0400,-0.1600,0.0000,-0.3125,-1.3125,-2.8125,0.59930419921875,-0.24774169921875,-0.58807373046875,-0.48333740234375,stop
119.28,3,1,3,0,-0.0500,-0.1900,0.0400,0.3125,-1.3125,-2.6875,0.59918212890625,-0.24768066406250,-0.58819580078125,-0.48345947265625,stop
119.29,3,1,3,0,-0.0400,-0.1900,0.0000,0.3750,-0.8125,-2.6250,0.59899902343750,-0.24755859375000,-0.58825683593750,-0.48352050781250,stop
119.30,3,1,3,0,-0.0500,-0.1700,0.0200,0.4375,-1.0000,-2.5625,0.59887695312500,-0.24749755859375,-0.58837890625000,-0.48364257812500,stop
119.31,3,1,3,0,-0.0500,-0.1700,0.0200,0.5000,-0.7500,-2.4375,0.59875488281250,-0.24743652343750,-0.58843994140625,-0.48370361328125,stop
119.32,3,1,3,0,-0.1300,-0.2100,0.0900,0.4375,-0.5000,-2.2500,0.59869384765625,-0.24737548828125,-0.58850097656250,-0.48382568359375,stop
119.33,3,1,3,0,-0.1600,-0.2100,0.1100,0.0000,0.1250,-1.8750,0.59863281250000,-0.24731445312500,-0.58850097656250,-0.48388671875000,stop
119.34,3,1,3,0,-0.1200,-0.1900,0.0700,-0.1875,0.5000,-1.5625,0.59863281250000,-0.24725341796875,-0.58850097656250,-0.48400878906250,stop
119.35,3,1,3,0,-0.1300,-0.1400,0.0500,-0.4375,0.6250,-1.3125,0.59863281250000,-0.24719238281250,-0.58843994140625,-0.48406982421875,stop
119.36,3,1,3,0,-0.0400,-0.1100,0.0500,-0.2500,0.1875,-1.2500,0.59857177734375,-0.24713134765625,-0.58843994140625,-0.48413085937500,stop
119.37,3,1,3,0,-0.0300,-0.1300,0.0800,-0.1250,0.0000,-1.1250,0.59857177734375,-0.24707031250000,-0.58843994140625,-0.48419189453125,stop
119.38,3,1,3,0,-0.0500,-0.1500,0.0300,-0.2500,0.0000,-1.0625,0.59851074218750,-0.24700927734375,-0.58843994140625,-0.48419189453125,stop
119.39,3,1,3,0,-0.0500,-0.1500,-0.0200,-0.2500,-0.1250,-1.0000,0.59851074218750,-0.24700927734375,-0.58850097656250,-0.48425292968750,stop
119.40,3,1,3,0,0.0500,-0.1400,-0.0800,-0.1250,-0.4375,-0.8125,0.59844970703125,-0.24694824218750,-0.58850097656250,-0.48431396484375,stop
119.42,3,1,3,0,0.0500,-0.1100,-0.0300,0.6875,-0.8125,-0.3125,0.59838867187500,-0.24707031250000,-0.58862304687500,-0.48419189453125,stop
119.42,3,1,3,0,0.0500,-0.1100,-0.0300,0.6875,-0.8125,-0.3125,0.59838867187500,-0.24707031250000,-0.58862304687500,-0.48419189453125,stop
119.43,3,1,3,0,-0.0800,-0.0700,0.0000,0.8125,-0.2500,-0.2500,0.59844970703125,-0.24707031250000,-0.58862304687500,-0.48413085937500,stop
119.44,3,1,3,0,-0.1000,-0.1100,0.0200,0.7500,0.0000,-0.0625,0.59844970703125,-0.24700927734375,-0.58868408203125,-0.48406982421875,stop
119.45,3,1,3,0,-0.1500,-0.1300,0.0000,0.6250,0.3125,0.0000,0.59844970703125,-0.24700927734375,-0.58868408203125,-0.48400878906250,stop
119.46,3,1,3,0,-0.1600,-0.1400,-0.0100,0.3125,0.2500,-0.1875,0.59851074218750,-0.24700927734375,-0.58868408203125,-0.48400878906250,stop
119.47,3,1,3,0,0.0300,-0.1500,-0.1100,0.4375,-0.5000,-0.5625,0.59844970703125,-0.24700927734375,-0.58868408203125,-0.48400878906250,stop
119.48,3,1,3,0,0.0500,-0.1600,-0.1200,0.8750,-1.2500,-0.9375,0.59838867187500,-0.24700927734375,-0.58880615234375,-0.48394775390625,stop
119.49,3,1,3,0,0.0500,-0.1700,-0.1200,1.1875,-1.6875,-0.8750,0.59826660156250,-0.24700927734375,-0.58898925781250,-0.48388671875000,stop
119.50,3,1,3,0,-0.0500,-0.1300,-0.1500,1.0625,-1.5625,-0.8125,0.59820556640625,-0.24700927734375,-0.58917236328125,-0.48376464843750,stop
119.51,3,1,3,0,-0.0900,-0.0900,-0.1600,1.0625,-1.3125,-0.5000,0.59814453125000,-0.24700927734375,-0.58929443359375,-0.48370361328125,stop
119.52,3,1,3,0,-0.1000,-0.1100,-0.1800,1.1875,-0.8750,-0.4375,0.59814453125000,-0.24700927734375,-0.58941650390625,-0.48358154296875,stop
119.53,3,1,3,0,-0.1000,-0.1200,-0.1500,1.2500,-0.6875,0.0000,0.59808349609375,-0.24700927734375,-0.58947753906250,-0.48345947265625,stop
119.54,3,1,3,0,-0.1500,-0.1000,-0.0700,1.5000,-0.5000,0.3125,0.59814453125000,-0.24694824218750,-0.58959960937500,-0.48339843750000,stop
119.55,3,1,3,0,-0.1300,-0.1000,0.0200,1.7500,-0.2500,0.6250,0.59820556640625,-0.24694824218750,-0.58966064453125,-0.48321533203125,stop
119.56,3,1,3,0,-0.1300,-0.1400,0.0800,1.2500,0.0000,1.0000,0.59826660156250,-0.24688720703125,-0.58966064453125,-0.48309326171875,stop
119.57,3,1,3,0,-0.1200,-0.1400,0.1000,0.5000,0.5625,1.1875,0.59838867187500,-0.24694824218750,-0.58959960937500,-0.48303222656250,stop
119.58,3,1,3,0,-0.1400,-0.1700,-0.0900,0.3125,0.8750,1.0625,0.59851074218750,-0.24700927734375,-0.58947753906250,-0.48303222656250,stop
119.59,3,1,3,0,-0.1500,-0.1700,-0.1600,0.5625,1.0000,1.0625,0.59857177734375,-0.24700927734375,-0.58947753906250,-0.48291015625000,stop
119.60,3,1,3,0,-0.1700,-0.2300,-0.1000,1.4375,0.7500,0.8750,0.59869384765625,-0.24694824218750,-0.58947753906250,-0.48278808593750,stop
119.61,3,1,3,0,-0.1300,-0.3100,0.0000,1.8125,0.8125,0.9375,0.59887695312500,-0.24694824218750,-0.58947753906250,-0.48260498046875,stop
119.62,3,1,3,0,-0.1000,-0.2900,-0.0200,1.8125,1.0625,1.3750,0.59906005859375,-0.24694824218750,-0.58941650390625,-0.48242187500000,stop
119.63,3,1,3,0,-0.0900,-0.2700,-0.0200,1.5625,0.8750,1.5000,0.59924316406250,-0.24694824218750,-0.58935546875000,-0.48223876953125,stop
119.64,3,1,3,0,-0.0500,-0.2200,-0.0600,1.7500,0.9375,2.0625,0.59942626953125,-0.24700927734375,-0.58935546875000,-0.48199462890625,stop
119.65,3,1,3,0,-0.0200,0.0000,-0.0600,2.0000,1.2500,2.6250,0.59967041015625,-0.24700927734375,-0.58929443359375,-0.48175048828125,stop
119.66,3,1,3,0,0.0000,0.0900,-0.0600,1.6250,1.8125,2.6250,0.59991455078125,-0.24700927734375,-0.58923339843750,-0.48156738281250,stop
119.67,3,1,3,0,-0.0300,0.1600,-0.0500,1.2500,2.2500,2.9375,0.60021972656250,-0.24700927734375,-0.58905029296875,-0.48138427734375,stop
119.68,3,1,3,0,-0.0600,0.1700,-0.0400,0.6875,2.7500,2.6875,0.60046386718750,-0.24700927734375,-0.58892822265625,-0.48126220703125,stop
119.69,3,1,3,0,-0.1700,0.1500,-0.0800,0.1250,3.0625,2.6250,0.60076904296875,-0.24700927734375,-0.58868408203125,-0.48120117187500,stop
119.70,3,1,3,0,-0.2200,0.1500,-0.1300,-0.3125,2.7500,2.5000,0.60101318359375,-0.24700927734375,-0.58850097656250,-0.48114013671875,stop
119.71,3,1,3,0,-0.2100,0.2100,-0.1300,-0.6250,1.8750,2.0625,0.60113525390625,-0.24707031250000,-0.58831787109375,-0.48107910156250,stop
119.72,3,1,3,0,-0.2100,0.3000,-0.1000,-0.6250,1.0000,1.5625,0.60119628906250,-0.24707031250000,-0.58825683593750,-0.48114013671875,stop
119.74,3,1,3,0,-0.2500,0.3200,-0.0300,-1.1875,0.7500,0.3750,0.60107421875000,-0.24688720703125,-0.58819580078125,-0.48138427734375,stop
119.75,3,1,3,0,-0.2200,0.2800,-0.0100,-1.5000,0.9375,0.0000,0.60101318359375,-0.24676513671875,-0.58819580078125,-0.48156738281250,stop
119.76,3,1,3,0,-0.1900,0.2200,-0.0100,-2.3750,1.1250,0.0000,0.60095214843750,-0.24676513671875,-0.58807373046875,-0.48181152343750,stop
119.77,3,1,3,0,-0.1800,0.2100,0.0000,-2.8125,1.3125,-0.0625,0.60089111328125,-0.24676513671875,-0.58795166015625,-0.48205566406250,stop
119.78,3,1,3,0,-0.1400,0.2700,-0.0200,-3.1250,1.4375,-0.3750,0.60083007812500,-0.24676513671875,-0.58776855468750,-0.48229980468750,stop
119.79,3,1,3,0,-0.1400,0.3400,-0.0200,-3.2500,1.2500,-0.8750,0.60070800781250,-0.24664306640625,-0.58764648437500,-0.48266601562500,stop
119.80,3,1,3,0,-0.1600,0.4300,0.0400,-3.5625,1.6875,-1.5625,0.60058593750000,-0.24652099609375,-0.58752441406250,-0.48309326171875,stop
119.81,3,1,3,0,-0.1600,0.3800,0.0600,-3.9375,1.8125,-2.6250,0.60034179687500,-0.24627685546875,-0.58734130859375,-0.48364257812500,stop
119.82,3,1,3,0,-0.1200,0.3300,0.0100,-4.3750,2.3750,-3.3125,0.60015869140625,-0.24609375000000,-0.58721923828125,-0.48425292968750,stop
119.83,3,1,3,0,-0.1000,0.3700,-0.0500,-4.6250,2.9375,-4.0000,0.59991455078125,-0.24578857421875,-0.58703613281250,-0.48486328125000,stop
119.84,3,1,3,0,-0.1100,0.3900,0.0100,-4.7500,3.2500,-4.5625,0.59967041015625,-0.24548339843750,-0.58685302734375,-0.48553466796875,stop
119.85,3,1,3,0,-0.0900,0.3600,0.0200,-5.3125,3.5625,-5.1875,0.59942626953125,-0.24517822265625,-0.58660888671875,-0.48626708984375,stop
119.86,3,1,3,0,-0.1200,0.3700,0.0500,-6.1875,3.6250,-5.9375,0.59912109375000,-0.24487304687500,-0.58636474609375,-0.48712158203125,stop
119.87,3,1,3,0,-0.2000,0.3900,-0.0500,-7.0000,3.5625,-6.8750,0.59875488281250,-0.24450683593750,-0.58612060546875,-0.48803710937500,stop
119.88,3,1,3,0,-0.1800,0.4100,-0.1200,-7.5625,3.5000,-7.8750,0.59832763671875,-0.24414062500000,-0.58587646484375,-0.48907470703125,stop
119.89,3,1,3,0,-0.2100,0.3900,-0.1200,-7.5625,2.9375,-8.7500,0.59777832031250,-0.24377441406250,-0.58569335937500,-0.49011230468750,stop
119.90,3,1,3,0,-0.2300,0.3800,0.0000,-6.8750,2.8125,-9.4375,0.59722900390625,-0.24334716796875,-0.58557128906250,-0.49114990234375,stop
119.91,3,1,3,0,-0.1500,0.2800,0.1800,-6.0000,3.0625,-10.0625,0.59674072265625,-0.24279785156250,-0.58538818359375,-0.49218750000000,stop
119.92,3,1,3,0,-0.0700,0.2100,0.1600,-6.2500,4.1875,-10.6875,0.59631347656250,-0.24224853515625,-0.58514404296875,-0.49322509765625,stop
119.93,3,1,3,0,0.0800,0.1500,0.1200,-6.3750,5.1250,-11.5625,0.59594726562500,-0.24169921875000,-0.58483886718750,-0.49432373046875,stop
119.94,3,1,3,0,0.2000,0.0700,-0.0400,-7.1875,6.1250,-13.0000,0.59552001953125,-0.24114990234375,-0.58453369140625,-0.49548339843750,stop
119.95,3,1,3,0,0.2800,-0.0100,-0.1500,-8.0000,6.2500,-14.8750,0.59503173828125,-0.24053955078125,-0.58416748046875,-0.49682617187500,stop
119.96,3,1,3,0,0.2300,-0.1100,-0.3000,-8.7500,6.5000,-16.3750,0.59448242187500,-0.23986816406250,-0.58380126953125,-0.49829101562500,stop
119.97,3,1,3,0,0.2600,-0.1200,-0.5300,-10.6875,6.5625,-17.6875,0.59381103515625,-0.23925781250000,-0.58331298828125,-0.49987792968750,stop
119.98,3,1,3,0,0.1200,-0.4200,-0.9100,-13.2500,5.4375,-18.4375,0.59301757812500,-0.23876953125000,-0.58288574218750,-0.50158691406250,stop
119.99,3,1,3,0,0.0400,-0.5600,-1.1400,-14.6250,4.2500,-17.8125,0.59216308593750,-0.23840332031250,-0.58239746093750,-0.50335693359375,stop
120.00,3,1,3,0,-0.0300,-0.7400,-1.2400,-13.3125,2.3125,-16.8750,0.59124755859375,-0.23815917968750,-0.58203125000000,-0.50494384765625,stop
120.00,3,1,3,0,-0.0300,-0.7400,-1.2400,-13.3125,2.3125,-16.8750,0.59124755859375,-0.23815917968750,-0.58203125000000,-0.50494384765625,stop
120.01,3,1,3,0,-0.2400,-1.1700,-1.3500,-11.4375,0.0000,-15.1875,0.59033203125000,-0.23797607421875,-0.58184814453125,-0.50634765625000,stop
120.02,3,1,3,0,-0.2400,-1.4300,-1.3400,-8.0000,-3.3750,-13.3750,0.58935546875000,-0.23785400390625,-0.58190917968750,-0.50738525390625,stop
120.03,3,1,3,0,-0.2000,-1.7000,-1.3400,-4.3750,-5.8125,-12.0000,0.58843994140625,-0.23773193359375,-0.58227539062500,-0.50805664062500,stop
120.06,3,1,3,0,-0.1300,-2.8400,-1.4900,-3.5000,-9.1875,-5.7500,0.58679199218750,-0.23797607421875,-0.58319091796875,-0.50885009765625,stop
120.06,3,1,3,0,0.0600,-3.0400,-1.5500,-5.3125,-11.3750,-0.7500,0.58605957031250,-0.23876953125000,-0.58355712890625,-0.50891113281250,stop
120.07,3,1,3,0,0.2600,-3.0800,-1.6700,-6.8125,-13.3750,5.0000,0.58544921875000,-0.23992919921875,-0.58380126953125,-0.50872802734375,stop
120.08,3,1,3,0,0.3300,-3.1500,-1.8800,-5.5625,-15.8125,11.3750,0.58502197265625,-0.24151611328125,-0.58416748046875,-0.50811767578125,stop
120.09,3,1,3,0,0.2900,-3.4500,-2.3300,-0.8750,-18.3750,18.3750,0.58489990234375,-0.24334716796875,-0.58465576171875,-0.50677490234375,stop
120.10,3,1,3,0,0.1600,-3.5700,-2.4500,6.0000,-20.5625,26.6250,0.58514404296875,-0.24530029296875,-0.58544921875000,-0.50469970703125,stop
120.11,3,1,3,0,0.0100,-3.6800,-2.5100,13.3125,-22.5625,34.5625,0.58581542968750,-0.24743652343750,-0.58642578125000,-0.50170898437500,stop
120.12,3,1,3,0,-0.6100,-4.0000,-2.4700,19.8750,-23.9375,41.7500,0.58679199218750,-0.24963378906250,-0.58758544921875,-0.49804687500000,stop
120.13,3,1,3,0,-0.9700,-3.8500,-2.3100,25.5625,-26.8750,48.1250,0.58807373046875,-0.25195312500000,-0.58905029296875,-0.49365234375000,stop
120.14,3,1,3,0,-1.4100,-3.5700,-2.1600,30.3750,-29.2500,54.3125,0.58959960937500,-0.25445556640625,-0.59063720703125,-0.48864746093750,stop
120.15,3,1,3,0,-1.8700,-3.5200,-1.9400,35.9375,-32.8750,59.8750,0.59124755859375,-0.25714111328125,-0.59252929687500,-0.48291015625000,stop
120.16,3,1,3,0,-2.2500,-3.0600,-1.3100,38.6875,-35.5000,65.2500,0.59301757812500,-0.26007080078125,-0.59454345703125,-0.47674560546875,stop
120.17,3,1,3,0,-2.2900,-2.7500,-0.9500,39.6875,-38.1875,70.0625,0.59478759765625,-0.26324462890625,-0.59655761718750,-0.47009277343750,moving
120.18,3,1,3,0,-2.1500,-2.3500,-0.4300,41.1250,-41.7500,74.4375,0.59661865234375,-0.26672363281250,-0.59869384765625,-0.46313476562500,moving
120.19,3,1,3,0,-1.8500,-2.0200,0.0300,43.0000,-43.9375,78.0625,0.59844970703125,-0.27032470703125,-0.60089111328125,-0.45574951171875,moving
120.20,3,1,3,0,-0.9500,-0.8700,0.8000,45.6250,-44.5625,81.3125,0.60040283203125,-0.27404785156250,-0.60308837890625,-0.44799804687500,moving
120.21,3,1,3,0,-0.8100,0.3300,1.0200,46.0000,-42.6250,82.8125,0.60247802734375,-0.27764892578125,-0.60510253906250,-0.44018554687500,moving
120.22,3,1,3,0,-1.0100,1.8000,0.9900,42.5625,-42.7500,80.3750,0.60430908203125,-0.28131103515625,-0.60705566406250,-0.43261718750000,moving
120.23,3,1,3,0,-1.7400,4.5000,0.7400,39.0000,-43.8750,73.1875,0.60571289062500,-0.28485107421875,-0.60900878906250,-0.42553710937500,moving
120.24,3,1,3,0,-1.8300,5.5700,0.4500,35.8125,-43.9375,61.2500,0.60650634765625,-0.28784179687500,-0.61114501953125,-0.41931152343750,moving
120.25,3,1,3,0,-1.6100,6.4700,0.0000,32.8750,-45.1875,49.1250,0.60668945312500,-0.29040527343750,-0.61346435546875,-0.41375732421875,moving
120.26,3,1,3,0,-1.1400,7.2700,0.0200,33.8750,-46.3750,39.8750,0.60650634765625,-0.29241943359375,-0.61614990234375,-0.40863037109375,moving
120.27,3,1,3,0,-1.1400,7.2700,0.0200,33.8750,-46.3750,39.8750,0.60650634765625,-0.29241943359375,-0.61614990234375,-0.40863037109375,moving
120.27,3,1,3,0,-0.2000,9.0800,0.6100,35.3750,-40.3125,33.3125,0.60644531250000,-0.29376220703125,-0.61871337890625,-0.40393066406250,moving
120.28,3,1,3,0,0.4800,10.1500,1.1600,33.2500,-35.1875,23.3750,0.60620117187500,-0.29455566406250,-0.62115478515625,-0.39996337890625,moving
120.29,3,1,3,0,1.1300,10.6700,1.9500,35.0625,-30.3750,9.5625,0.60577392578125,-0.29425048828125,-0.62371826171875,-0.39678955078125,moving
120.30,3,1,3,0,1.6300,10.8500,3.1400,49.6250,-23.9375,-9.1875,0.60540771484375,-0.29193115234375,-0.62695312500000,-0.39398193359375,moving
120.31,3,1,3,0,2.0800,8.2800,4.3100,51.3125,-23.9375,-33.3125,0.60424804687500,-0.28820800781250,-0.63079833984375,-0.39233398437500,moving
120.32,3,1,3,0,1.3200,7.3700,4.2400,37.6250,-28.1250,-57.6250,0.60162353515625,-0.28399658203125,-0.63507080078125,-0.39257812500000,moving
120.33,3,1,3,0,0.3600,6.7200,3.9500,20.6875,-28.0000,-73.6875,0.59802246093750,-0.27972412109375,-0.63903808593750,-0.39465332031250,moving
120.34,3,1,3,0,-0.7200,5.4100,2.2200,-3.8125,-17.7500,-81.2500,0.59411621093750,-0.27600097656250,-0.64184570312500,-0.39868164062500,moving
120.37,3,1,3,0,1.1900,5.3600,0.1200,-39.0000,6.0000,-85.1250,0.58660888671875,-0.26983642578125,-0.64343261718750,-0.41113281250000,moving
120.37,3,1,3,0,2.8300,5.6800,-0.4800,-40.0625,6.9375,-90.3125,0.58276367187500,-0.26647949218750,-0.64373779296875,-0.41821289062500,moving
120.38,3,1,3,0,3.8700,5.2400,0.5800,-31.0000,0.0000,-99.4375,0.57836914062500,-0.26245117187500,-0.64495849609375,-0.42504882812500,moving
120.39,3,1,3,0,2.8900,3.9900,1.9500,-21.0625,-2.6875,-109.0625,0.57366943359375,-0.25738525390625,-0.64678955078125,-0.43170166015625,moving
120.40,3,1,3,0,1.9300,2.4100,2.9300,-18.1250,3.6250,-114.6250,0.56909179687500,-0.25164794921875,-0.64843750000000,-0.43853759765625,moving
120.41,3,1,3,0,1.2200,0.7000,3.1500,-33.9375,13.5000,-114.0000,0.56469726562500,-0.24627685546875,-0.64892578125000,-0.44647216796875,moving
120.42,3,1,3,0,0.8100,-1.0900,1.7900,-68.4375,17.4375,-112.8750,0.55975341796875,-0.24255371093750,-0.64782714843750,-0.45623779296875,moving
120.43,3,1,3,0,1.0500,-1.9100,1.7300,-71.5625,20.8125,-114.4375,0.55480957031250,-0.23864746093750,-0.64630126953125,-0.46636962890625,moving
120.44,3,1,3,0,0.9100,-3.3700,1.8100,-56.3125,26.6250,-112.3750,0.55053710937500,-0.23388671875000,-0.64501953125000,-0.47552490234375,moving
120.45,3,1,3,0,1.3800,-5.9000,1.1000,-53.3750,41.5625,-107.8125,0.54724121093750,-0.22863769531250,-0.64300537109375,-0.48455810546875,moving
120.46,3,1,3,0,1.5500,-6.5500,0.5300,-51.8125,52.2500,-99.8125,0.54486083984375,-0.22320556640625,-0.64025878906250,-0.49328613281250,moving
120.47,3,1,3,0,1.8500,-6.8900,-0.2200,-46.4375,55.4375,-89.6250,0.54321289062500,-0.21801757812500,-0.63732910156250,-0.50122070312500,moving
120.48,3,1,3,0,2.0900,-7.3200,-1.0900,-36.6250,50.2500,-76.5625,0.54193115234375,-0.21325683593750,-0.63476562500000,-0.50787353515625,moving
120.49,3,1,3,0,2.5300,-8.6100,-3.1700,-27.5625,39.2500,-64.9375,0.54064941406250,-0.20916748046875,-0.63287353515625,-0.51318359375000,moving
120.50,3,1,3,0,2.6900,-9.8800,-4.5400,0.4375,27.7500,-43.1875,0.54028320312500,-0.20550537109375,-0.63232421875000,-0.51574707031250,moving
120.51,3,1,3,0,2.7500,-9.9800,-5.2900,35.6875,15.5000,-23.5000,0.54071044921875,-0.20184326171875,-0.63360595703125,-0.51519775390625,moving
120.52,3,1,3,0,2.7500,-9.9800,-5.2900,35.6875,15.5000,-23.5000,0.54071044921875,-0.20184326171875,-0.63360595703125,-0.51519775390625,moving
120.52,3,1,3,0,3.0700,-10.6400,-5.9500,66.1875,3.7500,-0.5625,0.54205322265625,-0.19848632812500,-0.63641357421875,-0.51159667968750,moving
120.53,3,1,3,0,3.2300,-9.0600,-5.1300,86.3125,5.1875,9.7500,0.54425048828125,-0.19476318359375,-0.63983154296875,-0.50640869140625,moving
120.54,3,1,3,0,2.4500,-8.1900,-4.0200,74.6250,21.5000,21.1250,0.54766845703125,-0.19146728515625,-0.64172363281250,-0.50158691406250,moving
120.55,3,1,3,0,2.0500,-7.5300,-3.1800,41.9375,16.8125,30.6875,0.55065917968750,-0.19042968750000,-0.64221191406250,-0.49804687500000,moving
120.56,3,1,3,0,1.8600,-6.5400,-1.4200,19.0625,-4.6250,42.4375,0.55255126953125,-0.19213867187500,-0.64257812500000,-0.49481201171875,moving
120.57,3,1,3,0,1.7300,-6.2300,-0.6100,8.8750,-21.1250,54.1875,0.55389404296875,-0.19567871093750,-0.64306640625000,-0.49133300781250,moving
120.58,3,1,3,0,1.6100,-5.9900,-0.1800,9.5625,-26.9375,66.0625,0.55535888671875,-0.20013427734375,-0.64361572265625,-0.48712158203125,moving
120.59,3,1,3,0,1.4400,-5.5600,0.1200,13.1875,-24.9375,77.1875,0.55749511718750,-0.20489501953125,-0.64404296875000,-0.48217773437500,moving
120.60,3,1,3,0,1.1200,-4.4200,0.2100,15.7500,-18.6875,86.6250,0.56036376953125,-0.20983886718750,-0.64404296875000,-0.47668457031250,moving
120.61,3,1,3,0,1.1300,-3.6800,0.1500,18.1250,-13.9375,95.0625,0.56384277343750,-0.21490478515625,-0.64367675781250,-0.47070312500000,moving
120.62,3,1,3,0,1.2600,-2.8100,0.2500,20.6875,-13.8750,102.3750,0.56768798828125,-0.22027587890625,-0.64324951171875,-0.46417236328125,moving
120.63,3,1,3,0,1.2200,-1.3800,0.7900,22.1250,-17.5000,106.5000,0.57141113281250,-0.22589111328125,-0.64294433593750,-0.45727539062500,moving
120.64,3,1,3,0,1.1300,-0.4200,0.9600,22.3750,-18.4375,106.7500,0.57507324218750,-0.23150634765625,-0.64257812500000,-0.45025634765625,moving
120.65,3,1,3,0,1.0600,0.6900,0.9300,24.3750,-16.6250,104.6875,0.57873535156250,-0.23687744140625,-0.64227294921875,-0.44323730468750,moving
120.66,3,1,3,0,1.1100,1.8600,0.6800,21.8750,-16.5625,99.1250,0.58209228515625,-0.24200439453125,-0.64184570312500,-0.43658447265625,moving
120.69,3,1,3,0,1.0400,4.8900,0.0500,19.1875,-20.5000,81.9375,0.58721923828125,-0.25122070312500,-0.64147949218750,-0.42492675781250,moving
120.69,3,1,3,0,0.5700,5.6100,0.1000,21.5000,-24.3750,74.4375,0.58911132812500,-0.25518798828125,-0.64184570312500,-0.41931152343750,moving
120.70,3,1,3,0,0.4300,6.8000,0.2000,17.3750,-30.6250,60.6875,0.59002685546875,-0.25885009765625,-0.64270019531250,-0.41448974609375,moving
120.71,3,1,3,0,-0.4300,8.1900,0.2300,13.8125,-34.3125,51.0625,0.59027099609375,-0.26226806640625,-0.64379882812500,-0.41027832031250,moving
120.72,3,1,3,0,-0.5200,8.8100,0.3200,18.8750,-35.0625,38.3125,0.59008789062500,-0.26470947265625,-0.64538574218750,-0.40643310546875,moving
120.73,3,1,3,0,-0.7300,9.8700,0.3700,23.6875,-37.0625,22.1875,0.58935546875000,-0.26611328125000,-0.64764404296875,-0.40307617187500,moving
120.74,3,1,3,0,-1.2300,10.2000,0.6200,26.8125,-37.8750,3.7500,0.58795166015625,-0.26629638671875,-0.65039062500000,-0.40045166015625,moving
120.75,3,1,3,0,-2.0000,10.3900,1.1200,33.8750,-31.8750,-13.4375,0.58648681640625,-0.26489257812500,-0.65356445312500,-0.39849853515625,moving
120.76,3,1,3,0,-2.8600,10.3700,1.3800,36.2500,-21.5000,-27.8750,0.58508300781250,-0.26214599609375,-0.65655517578125,-0.39733886718750,moving
120.77,3,1,3,0,-3.3000,10.0300,1.7000,38.6875,-13.2500,-42.1875,0.58374023437500,-0.25823974609375,-0.65954589843750,-0.39697265625000,moving
120.78,3,1,3,0,-3.3000,10.0300,1.7000,38.6875,-13.2500,-42.1875,0.58374023437500,-0.25823974609375,-0.65954589843750,-0.39697265625000,moving
120.78,3,1,3,0,-2.7400,6.9800,3.0000,35.8125,0.0625,-51.5000,0.58276367187500,-0.25341796875000,-0.66192626953125,-0.39758300781250,moving
120.79,3,1,3,0,-1.9900,5.9000,3.4000,21.3750,13.0000,-62.1875,0.58178710937500,-0.24822998046875,-0.66339111328125,-0.39978027343750,moving
120.80,3,1,3,0,-1.2700,5.4400,3.6100,-2.5000,19.2500,-73.0625,0.58026123046875,-0.24340820312500,-0.66387939453125,-0.40405273437500,moving
120.81,3,1,3,0,-0.4600,5.1100,3.3500,-25.9375,24.3125,-82.2500,0.57818603515625,-0.23907470703125,-0.66345214843750,-0.41027832031250,moving
120.82,3,1,3,0,0.4200,4.5000,1.8100,-44.0000,22.6250,-90.5000,0.57531738281250,-0.23522949218750,-0.66259765625000,-0.41790771484375,moving
120.83,3,1,3,0,0.5700,3.8900,1.1700,-56.5000,19.1250,-96.8125,0.57171630859375,-0.23168945312500,-0.66156005859375,-0.42639160156250,moving
120.84,3,1,3,0,0.4400,3.1200,0.7900,-59.6250,19.3125,-102.2500,0.56774902343750,-0.22802734375000,-0.66040039062500,-0.43536376953125,moving
120.85,3,1,3,0,0.0200,1.0000,0.4200,-52.3125,23.0000,-104.4375,0.56402587890625,-0.22363281250000,-0.65930175781250,-0.44403076171875,moving
120.86,3,1,3,0,-0.1200,-0.2900,-0.4900,-55.5625,29.7500,-100.1875,0.56072998046875,-0.21942138671875,-0.65759277343750,-0.45275878906250,moving
120.87,3,1,3,0,0.4300,-1.0300,-1.7900,-72.6250,33.0625,-94.7500,0.55743408203125,-0.21618652343750,-0.65490722656250,-0.46221923828125,moving
120.88,3,1,3,0,1.0600,-1.5800,-1.6400,-54.7500,29.9375,-93.8750,0.55432128906250,-0.21221923828125,-0.65295410156250,-0.47045898437500,moving
120.89,3,1,3,0,1.2600,-3.4200,-0.3200,-32.2500,30.1875,-93.2500,0.55157470703125,-0.20715332031250,-0.65185546875000,-0.47741699218750,moving
120.90,3,1,3,0,1.3200,-4.6500,-0.0800,-27.5000,34.1875,-90.9375,0.54919433593750,-0.20184326171875,-0.65069580078125,-0.48394775390625,moving
120.91,3,1,3,0,1.3700,-5.6500,-0.0700,-24.0000,38.2500,-85.1875,0.54730224609375,-0.19653320312500,-0.64929199218750,-0.49011230468750,moving
120.92,3,1,3,0,1.5200,-6.2900,-0.2500,-21.4375,41.0000,-74.8125,0.54608154296875,-0.19152832031250,-0.64770507812500,-0.49560546875000,moving
120.93,3,1,3,0,2.0000,-7.4100,-1.1400,-26.3750,41.5000,-61.6250,0.54528808593750,-0.18743896484375,-0.64556884765625,-0.50073242187500,moving
120.94,3,1,3,0,2.1200,-7.9100,-1.9000,-41.1250,36.4375,-47.3750,0.54455566406250,-0.18511962890625,-0.64282226562500,-0.50592041015625,moving
120.95,3,1,3,0,2.3200,-8.4900,-2.8800,-45.9375,23.5000,-32.4375,0.54370117187500,-0.18444824218750,-0.64019775390625,-0.51043701171875,moving
120.96,3,1,3,0,2.8000,-10.1500,-4.6500,-28.6250,9.0625,-10.5625,0.54327392578125,-0.18481445312500,-0.63861083984375,-0.51269531250000,moving
120.97,3,1,3,0,3.0200,-10.1800,-5.1400,5.8750,-1.1875,12.4375,0.54388427734375,-0.18530273437500,-0.63873291015625,-0.51171875000000,moving
120.98,3,1,3,0,3.2300,-11.0300,-5.7800,42.7500,-3.8750,34.0625,0.54589843750000,-0.18530273437500,-0.64025878906250,-0.50762939453125,moving
121.01,3,1,3,0,3.2900,-9.1200,-3.8400,86.1250,20.6875,61.3750,0.55468750000000,-0.18261718750000,-0.64447021484375,-0.49365234375000,moving
121.01,3,1,3,0,3.0600,-8.3000,-2.4100,75.3750,18.0625,71.7500,0.55999755859375,-0.18225097656250,-0.64562988281250,-0.48614501953125,moving
121.02,3,1,3,0,2.8400,-7.4800,-0.7100,60.0000,2.5625,81.6250,0.56457519531250,-0.18383789062500,-0.64672851562500,-0.47875976562500,moving
121.03,3,1,3,0,2.5800,-6.3200,0.8900,43.6250,-7.6250,91.6875,0.56866455078125,-0.18719482421875,-0.64746093750000,-0.47161865234375,moving
121.04,3,1,3,0,2.5800,-6.3200,0.8900,43.6250,-7.6250,91.6875,0.56866455078125,-0.18719482421875,-0.64746093750000,-0.47161865234375,moving
121.04,3,1,3,0,2.2000,-3.8500,2.0000,30.7500,-8.8125,101.0625,0.57281494140625,-0.19183349609375,-0.64746093750000,-0.46466064453125,moving
121.05,3,1,3,0,2.0300,-3.1800,1.9900,22.0000,-5.4375,109.8125,0.57733154296875,-0.19720458984375,-0.64672851562500,-0.45776367187500,moving
121.06,3,1,3,0,1.8300,-2.5200,1.6800,23.0625,-3.8750,115.2500,0.58209228515625,-0.20269775390625,-0.64581298828125,-0.45050048828125,moving
121.07,3,1,3,0,1.2500,-1.2700,0.7100,26.6875,-6.9375,118.3750,0.58679199218750,-0.20837402343750,-0.64508056640625,-0.44281005859375,moving
121.08,3,1,3,0,1.0400,-0.6500,0.1900,27.7500,-13.1875,120.4375,0.59124755859375,-0.21423339843750,-0.64459228515625,-0.43475341796875,moving
121.09,3,1,3,0,0.6800,0.1300,-0.1100,26.8750,-18.3125,122.9375,0.59533691406250,-0.22052001953125,-0.64422607421875,-0.42651367187500,moving
121.10,3,1,3,0,0.2700,0.9800,-0.1400,19.5625,-21.9375,123.5625,0.59906005859375,-0.22729492187500,-0.64367675781250,-0.41851806640625,moving
121.11,3,1,3,0,-0.4400,3.1800,-0.4900,0.1875,-25.9375,119.7500,0.60198974609375,-0.23498535156250,-0.64257812500000,-0.41162109375000,moving
121.12,3,1,3,0,-0.6000,4.7600,-0.7600,-23.1875,-33.5625,109.6875,0.60357666015625,-0.24359130859375,-0.64123535156250,-0.40643310546875,moving
121.13,3,1,3,0,-0.6200,6.6800,-0.8300,-32.3750,-46.7500,95.9375,0.60363769531250,-0.25238037109375,-0.64044189453125,-0.40216064453125,moving
121.14,3,1,3,0,-0.9300,9.2000,0.1300,-17.9375,-61.7500,82.6875,0.60266113281250,-0.26013183593750,-0.64123535156250,-0.39739990234375,moving
121.15,3,1,3,0,-0.8100,10.6000,1.0000,11.6875,-69.4375,67.9375,0.60144042968750,-0.26574707031250,-0.64373779296875,-0.39154052734375,moving
121.16,3,1,3,0,-1.0100,11.2400,1.9700,39.3125,-61.4375,58.7500,0.60089111328125,-0.26910400390625,-0.64691162109375,-0.38476562500000,moving
121.17,3,1,3,0,-1.3300,11.6700,2.7400,57.8125,-39.8750,49.6250,0.60162353515625,-0.27020263671875,-0.64971923828125,-0.37799072265625,moving
121.18,3,1,3,0,-0.6500,9.0800,2.6700,54.6250,-18.2500,34.5000,0.60302734375000,-0.26989746093750,-0.65167236328125,-0.37261962890625,moving
121.19,3,1,3,0,-0.6700,7.9900,2.6700,30.0000,-4.2500,13.4375,0.60394287109375,-0.26922607421875,-0.65252685546875,-0.37011718750000,moving
121.20,3,1,3,0,-1.1600,8.3100,2.2600,6.8125,4.1250,-6.8750,0.60406494140625,-0.26837158203125,-0.65270996093750,-0.37017822265625,moving
121.21,3,1,3,0,-1.2900,8.0700,1.9300,-6.3125,9.3750,-24.5000,0.60369873046875,-0.26696777343750,-0.65258789062500,-0.37207031250000,moving
121.22,3,1,3,0,-1.6600,7.6900,1.4600,-10.3125,13.5000,-40.1875,0.60290527343750,-0.26477050781250,-0.65246582031250,-0.37512207031250,moving
121.23,3,1,3,0,-1.7600,7.4600,1.4700,-13.0000,12.0000,-54.9375,0.60150146484375,-0.26190185546875,-0.65264892578125,-0.37902832031250,moving
121.24,3,1,3,0,-1.7500,7.2100,1.4500,-12.0000,10.0000,-68.5000,0.59948730468750,-0.25823974609375,-0.65332031250000,-0.38354492187500,moving
121.25,3,1,3,0,-0.8700,6.4900,1.0200,-11.0000,7.1875,-80.0000,0.59692382812500,-0.25402832031250,-0.65435791015625,-0.38854980468750,moving
121.26,3,1,3,0,-0.3400,6.0600,0.7300,-18.5000,8.0000,-89.3750,0.59393310546875,-0.24957275390625,-0.65527343750000,-0.39447021484375,moving
121.27,3,1,3,0,-0.1000,5.3500,0.3600,-31.5625,11.1250,-96.3750,0.59051513671875,-0.24523925781250,-0.65570068359375,-0.40155029296875,moving
121.28,3,1,3,0,-0.1100,4.2300,0.0900,-46.3125,11.9375,-101.0625,0.58660888671875,-0.24139404296875,-0.65557861328125,-0.40966796875000,moving
121.29,3,1,3,0,0.0500,3.3400,-1.1200,-66.3750,11.0625,-104.1250,0.58209228515625,-0.23834228515625,-0.65478515625000,-0.41900634765625,moving
121.30,3,1,3,0,0.0500,3.3400,-1.1200,-66.3750,11.0625,-104.1250,0.58209228515625,-0.23834228515625,-0.65478515625000,-0.41900634765625,moving
121.30,3,1,3,0,0.3100,3.2600,-1.4700,-68.8125,8.9375,-108.3750,0.57714843750000,-0.23529052734375,-0.65405273437500,-0.42864990234375,moving
121.31,3,1,3,0,0.5000,2.2500,-0.8100,-46.7500,8.9375,-111.3750,0.57250976562500,-0.23083496093750,-0.65411376953125,-0.43713378906250,moving
121.34,3,1,3,0,0.6500,-1.3700,0.8700,-68.7500,19.1875,-105.8125,0.56359863281250,-0.22308349609375,-0.65216064453125,-0.45532226562500,moving
121.34,3,1,3,0,1.4500,-2.4000,1.5000,-68.6250,23.1875,-102.6875,0.55944824218750,-0.21960449218750,-0.65026855468750,-0.46472167968750,moving
121.35,3,1,3,0,2.3700,-3.4900,1.6700,-58.8750,28.0625,-100.6250,0.55578613281250,-0.21557617187500,-0.64837646484375,-0.47351074218750,moving
121.36,3,1,3,0,3.0400,-5.4000,0.9200,-57.4375,36.3125,-97.5625,0.55267333984375,-0.21130371093750,-0.64605712890625,-0.48223876953125,moving
121.37,3,1,3,0,3.1000,-6.1100,0.3600,-57.0000,42.9375,-91.6250,0.55010986328125,-0.20703125000000,-0.64324951171875,-0.49066162109375,moving
121.38,3,1,3,0,2.8900,-6.8000,-0.4400,-56.0000,48.5000,-81.0000,0.54833984375000,-0.20306396484375,-0.63995361328125,-0.49853515625000,moving
121.39,3,1,3,0,2.8300,-7.4900,-1.4400,-51.8125,46.2500,-67.2500,0.54705810546875,-0.19970703125000,-0.63665771484375,-0.50549316406250,moving
121.40,3,1,3,0,2.1900,-9.9800,-3.5500,-42.6250,38.0625,-50.4375,0.54620361328125,-0.19726562500000,-0.63378906250000,-0.51092529296875,moving
121.41,3,1,3,0,2.5600,-9.8600,-4.5600,-27.0625,29.5625,-39.2500,0.54559326171875,-0.19500732421875,-0.63183593750000,-0.51483154296875,moving
121.42,3,1,3,0,2.5200,-10.0900,-5.8500,4.4375,18.4375,-20.1875,0.54577636718750,-0.19287109375000,-0.63153076171875,-0.51586914062500,moving
121.43,3,1,3,0,2.7000,-12.9400,-6.5900,50.1250,9.5625,-4.8750,0.54693603515625,-0.18975830078125,-0.63336181640625,-0.51348876953125,moving
121.44,3,1,3,0,3.2600,-11.7600,-6.9700,92.8750,12.7500,15.5625,0.54986572265625,-0.18566894531250,-0.63665771484375,-0.50781250000000,moving
121.45,3,1,3,0,3.3200,-11.6800,-5.8900,114.5625,12.8125,33.8125,0.55389404296875,-0.18145751953125,-0.64050292968750,-0.49993896484375,moving
121.46,3,1,3,0,2.9700,-10.6400,-4.2000,106.1250,8.8125,50.1875,0.55828857421875,-0.17877197265625,-0.64392089843750,-0.49169921875000,moving
121.47,3,1,3,0,2.3800,-8.2800,-0.0400,78.6250,-4.1250,63.1250,0.56195068359375,-0.17871093750000,-0.64648437500000,-0.48406982421875,moving
121.48,3,1,3,0,2.1800,-6.9100,1.3200,47.4375,-18.6875,75.5000,0.56481933593750,-0.18151855468750,-0.64819335937500,-0.47735595703125,moving
121.49,3,1,3,0,1.8400,-5.6600,2.2900,31.5625,-22.7500,88.3125,0.56774902343750,-0.18591308593750,-0.64916992187500,-0.47082519531250,moving
121.50,3,1,3,0,1.4500,-4.3800,2.5800,27.5625,-18.9375,100.1250,0.57122802734375,-0.19104003906250,-0.64959716796875,-0.46392822265625,moving
121.51,3,1,3,0,1.0400,-3.2800,1.9100,26.4375,-10.4375,108.6250,0.57543945312500,-0.19635009765625,-0.64935302734375,-0.45678710937500,moving
121.52,3,1,3,0,0.9200,-2.8600,1.3900,26.5000,-0.8125,116.2500,0.58050537109375,-0.20172119140625,-0.64843750000000,-0.44934082031250,moving
121.53,3,1,3,0,0.7500,-2.3400,1.0200,26.5625,5.0625,123.6250,0.58605957031250,-0.20721435546875,-0.64697265625000,-0.44158935546875,moving
121.54,3,1,3,0,0.5600,-1.8200,0.6000,23.4375,4.7500,129.9375,0.59179687500000,-0.21319580078125,-0.64520263671875,-0.43365478515625,moving
121.55,3,1,3,0,0.5600,-1.8200,0.6000,23.4375,4.7500,129.9375,0.59179687500000,-0.21319580078125,-0.64520263671875,-0.43365478515625,moving
121.55,3,1,3,0,0.3000,-1.0300,-0.1200,17.3750,0.0000,134.3750,0.59716796875000,-0.21990966796875,-0.64331054687500,-0.42565917968750,moving
121.56,3,1,3,0,0.1300,-0.5300,-0.3600,6.5625,-5.6250,135.6250,0.60198974609375,-0.22741699218750,-0.64117431640625,-0.41802978515625,moving
121.57,3,1,3,0,0.0000,0.4500,-0.8100,-13.8750,-12.8125,132.3750,0.60583496093750,-0.23602294921875,-0.63867187500000,-0.41149902343750,moving
121.58,3,1,3,0,0.0000,3.5000,-1.8800,-51.3125,-26.3750,124.1250,0.60772705078125,-0.24664306640625,-0.63562011718750,-0.40722656250000,moving
121.59,3,1,3,0,0.0900,5.7600,-2.3300,-89.4375,-42.8750,110.2500,0.60729980468750,-0.25909423828125,-0.63226318359375,-0.40533447265625,moving
121.60,3,1,3,0,-0.3000,7.6600,-2.1300,-94.1875,-63.2500,93.6250,0.60498046875000,-0.27148437500000,-0.63012695312500,-0.40405273437500,moving
121.61,3,1,3,0,-0.6500,9.1300,-1.4800,-58.5625,-81.5625,74.7500,0.60174560546875,-0.28161621093750,-0.63055419921875,-0.40130615234375,moving
121.62,3,1,3,0,-0.8900,10.5100,0.3700,-8.3125,-87.3125,65.2500,0.59899902343750,-0.28869628906250,-0.63317871093750,-0.39617919921875,moving
121.63,3,1,3,0,-1.7600,11.1900,1.3100,37.1250,-64.7500,56.3750,0.59826660156250,-0.29211425781250,-0.63641357421875,-0.38952636718750,moving
121.66,3,1,3,0,-1.1300,8.2100,1.2100,44.5000,-16.9375,38.1875,0.60144042968750,-0.29327392578125,-0.63989257812500,-0.37780761718750,moving
121.66,3,1,3,0,-1.3900,8.6100,1.4900,14.5000,-10.5000,22.2500,0.60198974609375,-0.29412841796875,-0.64038085937500,-0.37554931640625,moving
121.67,3,1,3,0,-1.3400,9.4200,1.7200,-7.3125,-8.6875,4.6250,0.60144042968750,-0.29504394531250,-0.64050292968750,-0.37548828125000,moving
121.68,3,1,3,0,-1.2800,9.7500,1.7000,-17.1250,-7.0000,-15.4375,0.60009765625000,-0.29528808593750,-0.64068603515625,-0.37707519531250,moving
121.69,3,1,3,0,-0.7800,8.8600,1.9500,-9.3750,-4.9375,-37.3125,0.59832763671875,-0.29388427734375,-0.64160156250000,-0.37945556640625,moving
121.70,3,1,3,0,-0.4900,7.2600,2.1900,-4.1875,-3.1250,-58.5000,0.59606933593750,-0.29089355468750,-0.64312744140625,-0.38269042968750,moving
121.71,3,1,3,0,-0.3100,6.3500,2.3400,-10.9375,-5.5625,-74.8125,0.59295654296875,-0.28741455078125,-0.64495849609375,-0.38702392578125,moving
121.72,3,1,3,0,0.0300,6.0400,2.3800,-20.4375,-8.6875,-86.6875,0.58898925781250,-0.28387451171875,-0.64691162109375,-0.39245605468750,moving
121.73,3,1,3,0,0.7900,5.9300,1.4900,-29.2500,-5.6250,-94.1875,0.58471679687500,-0.28021240234375,-0.64849853515625,-0.39886474609375,moving
121.74,3,1,3,0,1.0000,5.6200,0.8000,-35.3125,1.2500,-99.0000,0.58038330078125,-0.27630615234375,-0.64959716796875,-0.40594482421875,moving
121.75,3,1,3,0,1.1200,5.3400,0.3300,-39.2500,8.3125,-103.1250,0.57623291015625,-0.27209472656250,-0.65026855468750,-0.41363525390625,moving
121.76,3,1,3,0,1.3800,4.5000,-0.4700,-40.2500,13.9375,-107.0625,0.57214355468750,-0.26751708984375,-0.65063476562500,-0.42163085937500,moving
121.77,3,1,3,0,1.5900,3.5100,-0.2600,-36.1250,17.5625,-109.3750,0.56823730468750,-0.26239013671875,-0.65093994140625,-0.42956542968750,moving
121.78,3,1,3,0,1.8100,2.2300,0.2100,-38.2500,21.6875,-108.6875,0.56445312500000,-0.25726318359375,-0.65087890625000,-0.43762207031250,moving
121.79,3,1,3,0,1.9900,1.1000,0.7000,-55.4375,25.2500,-107.1250,0.56048583984375,-0.25286865234375,-0.64990234375000,-0.44665527343750,moving
121.80,3,1,3,0,2.7800,-0.6700,1.7200,-66.5625,27.9375,-107.3125,0.55639648437500,-0.24884033203125,-0.64831542968750,-0.45629882812500,moving
121.81,3,1,3,0,2.7800,-0.6700,1.7200,-66.5625,27.9375,-107.3125,0.55639648437500,-0.24884033203125,-0.64831542968750,-0.45629882812500,moving
121.81,3,1,3,0,2.9200,-2.0300,1.5000,-70.5000,31.8125,-106.8750,0.55236816406250,-0.24493408203125,-0.64624023437500,-0.46618652343750,moving
121.82,3,1,3,0,2.9800,-3.1000,1.3300,-84.8125,35.3750,-104.8750,0.54821777343750,-0.24157714843750,-0.64324951171875,-0.47680664062500,moving
121.83,3,1,3,0,3.1100,-3.8300,1.2700,-82.0625,41.3750,-102.8125,0.54449462890625,-0.23797607421875,-0.64001464843750,-0.48718261718750,moving
121.84,3,1,3,0,3.3800,-4.9400,-0.0400,-76.6250,43.5625,-100.6250,0.54095458984375,-0.23406982421875,-0.63671875000000,-0.49713134765625,moving
121.85,3,1,3,0,3.3900,-5.3000,-1.0400,-72.9375,43.0625,-96.5625,0.53765869140625,-0.23022460937500,-0.63342285156250,-0.50659179687500,moving
121.86,3,1,3,0,3.5900,-5.4000,-1.8900,-62.8125,41.1875,-90.1875,0.53466796875000,-0.22631835937500,-0.63049316406250,-0.51513671875000,moving
121.87,3,1,3,0,4.1800,-4.9800,-2.8100,-51.0000,39.1875,-80.9375,0.53210449218750,-0.22247314453125,-0.62799072265625,-0.52252197265625,moving
121.88,3,1,3,0,4.2600,-4.9900,-3.2800,-39.6250,37.5000,-70.0625,0.53021240234375,-0.21875000000000,-0.62573242187500,-0.52862548828125,moving
121.89,3,1,3,0,4.2500,-5.2600,-3.3300,-27.0000,32.5000,-60.3750,0.52868652343750,-0.21514892578125,-0.62414550781250,-0.53356933593750,moving
121.90,3,1,3,0,4.0000,-5.6100,-2.9400,-18.0625,28.0625,-50.9375,0.52746582031250,-0.21191406250000,-0.62292480468750,-0.53741455078125,moving
121.91,3,1,3,0,3.8800,-5.7800,-1.7600,-16.8750,23.3750,-40.5000,0.52655029296875,-0.20941162109375,-0.62182617187500,-0.54058837890625,moving
121.92,3,1,3,0,4.1200,-5.8700,-1.3500,-21.8750,16.0625,-29.6250,0.52557373046875,-0.20800781250000,-0.62060546875000,-0.54345703125000,moving
121.93,3,1,3,0,4.5100,-5.7400,-1.0200,-23.0000,8.0625,-18.3125,0.52478027343750,-0.20770263671875,-0.61944580078125,-0.54565429687500,moving
121.94,3,1,3,0,4.8400,-5.4200,-0.7700,-17.8125,2.4375,-7.4375,0.52423095703125,-0.20800781250000,-0.61865234375000,-0.54699707031250,moving
121.95,3,1,3,0,5.2600,-4.1700,-0.7100,-10.0000,0.8125,2.6875,0.52423095703125,-0.20861816406250,-0.61804199218750,-0.54742431640625,moving
121.97,3,1,3,0,4.2300,-3.3200,-0.4400,5.8750,5.5000,17.1875,0.52606201171875,-0.20965576171875,-0.61737060546875,-0.54602050781250,moving
121.98,3,1,3,0,2.6900,-3.3300,0.4000,14.3125,7.7500,22.1250,0.52783203125000,-0.20983886718750,-0.61724853515625,-0.54437255859375,moving
121.99,3,1,3,0,2.0800,-3.4400,0.5800,21.1875,10.0625,27.1875,0.53002929687500,-0.20989990234375,-0.61730957031250,-0.54211425781250,moving
122.00,3,1,3,0,1.7600,-3.4200,0.5900,25.7500,13.1250,32.8750,0.53277587890625,-0.20989990234375,-0.61730957031250,-0.53942871093750,moving
122.01,3,1,3,0,1.2000,-3.6100,0.6000,24.3750,11.3125,38.5625,0.53570556640625,-0.21032714843750,-0.61718750000000,-0.53649902343750,stop
122.02,3,1,3,0,0.0800,-3.3600,0.3700,25.1875,9.8750,43.5000,0.53875732421875,-0.21105957031250,-0.61712646484375,-0.53326416015625,stop
122.03,3,1,3,0,-0.3600,-3.0900,0.2300,27.6875,11.0625,48.3125,0.54211425781250,-0.21191406250000,-0.61694335937500,-0.52966308593750,stop
122.04,3,1,3,0,-0.8200,-2.7100,0.1000,30.1250,13.8125,52.3750,0.54583740234375,-0.21270751953125,-0.61669921875000,-0.52575683593750,stop
122.05,3,1,3,0,-1.4000,-2.1500,0.0400,31.7500,16.1250,55.3750,0.54986572265625,-0.21350097656250,-0.61633300781250,-0.52172851562500,stop
122.06,3,1,3,0,-2.4400,-1.2100,-0.1100,33.0000,19.0625,57.6875,0.55413818359375,-0.21417236328125,-0.61584472656250,-0.51745605468750,stop
122.07,3,1,3,0,-2.4400,-1.2100,-0.1100,33.0000,19.0625,57.6875,0.55413818359375,-0.21417236328125,-0.61584472656250,-0.51745605468750,stop
122.08,3,1,3,0,-2.9200,-0.8400,-0.4000,32.2500,21.2500,59.2500,0.55859375000000,-0.21484375000000,-0.61511230468750,-0.51324462890625,stop
122.08,3,1,3,0,-3.3100,-0.6500,-0.7000,29.4375,22.3125,59.8125,0.56304931640625,-0.21569824218750,-0.61419677734375,-0.50909423828125,stop
122.09,3,1,3,0,-4.0700,-0.2300,-1.0300,26.8750,22.1250,60.8125,0.56744384765625,-0.21667480468750,-0.61315917968750,-0.50506591796875,stop
122.10,3,1,3,0,-4.4100,0.0200,-0.9300,21.5625,16.2500,61.7500,0.57147216796875,-0.21820068359375,-0.61212158203125,-0.50109863281250,stop
122.11,3,1,3,0,-4.9400,0.2700,-0.9500,14.5000,11.5000,60.7500,0.57501220703125,-0.22027587890625,-0.61102294921875,-0.49749755859375,stop
122.12,3,1,3,0,-5.2600,0.6900,-0.9000,9.8750,7.1250,57.0000,0.57806396484375,-0.22253417968750,-0.60992431640625,-0.49420166015625,stop
122.13,3,1,3,0,-5.1800,1.5400,-0.8600,6.4375,4.5625,52.1875,0.58074951171875,-0.22479248046875,-0.60894775390625,-0.49133300781250,stop
122.14,3,1,3,0,-4.7500,2.0500,-0.8800,2.9375,3.9375,47.1250,0.58300781250000,-0.22705078125000,-0.60797119140625,-0.48883056640625,stop
122.15,3,1,3,0,-4.1100,2.7300,-0.7300,1.6875,2.1875,41.9375,0.58496093750000,-0.22906494140625,-0.60705566406250,-0.48663330078125,stop
122.16,3,1,3,0,-3.4600,3.1500,-0.5900,0.7500,-0.1875,37.5625,0.58660888671875,-0.23107910156250,-0.60632324218750,-0.48461914062500,stop
122.17,3,1,3,0,-2.1400,3.0600,-0.5000,0.0000,-1.3125,33.6250,0.58795166015625,-0.23291015625000,-0.60571289062500,-0.48284912109375,stop
122.18,3,1,3,0,-1.4700,3.0300,-0.3100,2.0625,-0.6875,29.8750,0.58923339843750,-0.23443603515625,-0.60522460937500,-0.48120117187500,stop
122.19,3,1,3,0,-0.8800,2.8400,-0.0100,1.1875,0.8125,25.5625,0.59039306640625,-0.23571777343750,-0.60473632812500,-0.47979736328125,stop
122.20,3,1,3,0,-0.0400,2.0000,0.5500,-0.2500,6.8750,20.6250,0.59161376953125,-0.23651123046875,-0.60394287109375,-0.47888183593750,stop
122.21,3,1,3,0,0.2000,1.5600,0.4200,-0.4375,16.0625,15.8125,0.59313964843750,-0.23669433593750,-0.60278320312500,-0.47839355468750,stop
122.22,3,1,3,0,0.5000,1.2900,0.0500,0.0000,21.6250,10.7500,0.59472656250000,-0.23638916015625,-0.60144042968750,-0.47827148437500,stop
122.23,3,1,3,0,0.8600,1.3200,-0.3000,0.6875,22.6250,6.3125,0.59619140625000,-0.23571777343750,-0.60015869140625,-0.47839355468750,stop
122.24,3,1,3,0,1.3200,1.3300,-0.8200,-0.3125,20.1250,2.9375,0.59735107421875,-0.23504638671875,-0.59899902343750,-0.47863769531250,stop
122.25,3,1,3,0,1.2000,1.2600,-0.7500,0.0625,15.0625,2.4375,0.59826660156250,-0.23455810546875,-0.59820556640625,-0.47882080078125,stop
122.26,3,1,3,0,0.7600,1.1100,-0.7100,2.1250,15.0000,4.7500,0.59930419921875,-0.23406982421875,-0.59741210937500,-0.47875976562500,stop
122.27,3,1,3,0,-0.0200,0.8100,-0.7300,4.1250,17.5000,7.1250,0.60058593750000,-0.23345947265625,-0.59649658203125,-0.47851562500000,stop
122.29,3,1,3,0,-0.6900,0.6200,-0.7400,8.0000,14.4375,6.1250,0.60308837890625,-0.23211669921875,-0.59509277343750,-0.47772216796875,stop
122.30,3,1,3,0,-0.8800,0.6500,-0.5900,8.5625,8.9375,5.0000,0.60394287109375,-0.23156738281250,-0.59490966796875,-0.47717285156250,stop
122.31,3,1,3,0,-1.0500,0.9200,-0.1800,7.8125,3.8125,3.3125,0.60443115234375,-0.23114013671875,-0.59497070312500,-0.47668457031250,stop
122.32,3,1,3,0,-0.9700,0.8700,0.0100,7.2500,0.5000,1.6875,0.60467529296875,-0.23089599609375,-0.59521484375000,-0.47619628906250,stop
122.33,3,1,3,0,-0.8600,0.7600,0.1100,5.0625,-1.5000,0.0000,0.60467529296875,-0.23065185546875,-0.59552001953125,-0.47589111328125,stop
122.34,3,1,3,0,-0.7700,0.7100,0.1700,1.9375,-2.8125,-1.2500,0.60449218750000,-0.23059082031250,-0.59576416015625,-0.47583007812500,stop
122.35,3,1,3,0,-0.4700,0.6500,0.1400,-0.2500,-3.6250,-2.5000,0.60424804687500,-0.23065185546875,-0.59600830078125,-0.47589111328125,stop
122.36,3,1,3,0,-0.3400,0.6300,0.1400,-2.4375,-4.3750,-3.3750,0.60382080078125,-0.23077392578125,-0.59625244140625,-0.47607421875000,stop
122.37,3,1,3,0,-0.3000,0.5800,0.1900,-4.1250,-4.6250,-3.8750,0.60333251953125,-0.23095703125000,-0.59637451171875,-0.47644042968750,stop
122.38,3,1,3,0,-0.2200,0.4900,0.3400,-5.3750,-4.0625,-3.8125,0.60284423828125,-0.23126220703125,-0.59649658203125,-0.47680664062500,stop
122.39,3,1,3,0,-0.1600,0.4600,0.3500,-6.9375,-2.8125,-3.5000,0.60235595703125,-0.23150634765625,-0.59643554687500,-0.47729492187500,stop
122.40,3,1,3,0,-0.1000,0.4600,0.3500,-8.3750,-1.4375,-3.1875,0.60198974609375,-0.23187255859375,-0.59619140625000,-0.47790527343750,stop
122.41,3,1,3,0,0.0300,0.4300,0.1700,-9.0625,0.6250,-2.8125,0.60174560546875,-0.23217773437500,-0.59582519531250,-0.47851562500000,stop
122.42,3,1,3,0,-0.0100,0.2400,0.3100,-9.5625,1.5000,-2.1250,0.60150146484375,-0.23248291015625,-0.59539794921875,-0.47918701171875,stop
122.43,3,1,3,0,-0.0200,0.1800,0.2600,-10.3125,1.4375,-2.3750,0.60125732421875,-0.23284912109375,-0.59497070312500,-0.47985839843750,stop
122.44,3,1,3,0,0.0000,0.0900,0.2000,-9.8750,2.0625,-2.3125,0.60107421875000,-0.23315429687500,-0.59448242187500,-0.48052978515625,stop
122.45,3,1,3,0,-0.1100,0.0900,0.0600,-11.1250,1.6250,-2.6250,0.60083007812500,-0.23352050781250,-0.59399414062500,-0.48132324218750,stop
122.46,3,1,3,0,-0.2200,0.0600,-0.1500,-11.5625,0.7500,-3.0000,0.60052490234375,-0.23394775390625,-0.59350585937500,-0.48205566406250,stop
122.47,3,1,3,0,-0.1900,0.0600,-0.2000,-10.7500,-0.3750,-3.1875,0.60015869140625,-0.23431396484375,-0.59313964843750,-0.48278808593750,stop
122.48,3,1,3,0,-0.2300,-0.0300,-0.2400,-9.6250,-0.8750,-3.7500,0.59973144531250,-0.23468017578125,-0.59283447265625,-0.48345947265625,stop
122.49,3,1,3,0,-0.2300,-0.1600,-0.2700,-8.0000,-0.8750,-4.1875,0.59936523437500,-0.23492431640625,-0.59265136718750,-0.48413085937500,stop
122.50,3,1,3,0,-0.1600,-0.2000,-0.1900,-6.1875,-1.1875,-4.3750,0.59893798828125,-0.23504638671875,-0.59252929687500,-0.48461914062500,stop
122.51,3,1,3,0,-0.1500,-0.1600,-0.1500,-4.9375,-1.3750,-4.6250,0.59857177734375,-0.23516845703125,-0.59252929687500,-0.48510742187500,stop
122.52,3,1,3,0,-0.1300,0.0000,0.0200,-4.0000,-2.2500,-4.8750,0.59674072265625,-0.23889160156250,-0.59552001953125,-0.48181152343750,stop
122.53,3,1,3,0,-0.0800,0.1400,0.2000,-2.9375,-2.3125,-5.1250,0.59631347656250,-0.23889160156250,-0.59564208984375,-0.48223876953125,stop
122.54,3,1,3,0,-0.1300,0.1700,0.2300,-2.3750,-1.5000,-5.3125,0.59600830078125,-0.23876953125000,-0.59570312500000,-0.48260498046875,stop
122.55,3,1,3,0,-0.1200,0.1700,0.2300,-1.7500,-0.8125,-5.4375,0.59570312500000,-0.23858642578125,-0.59576416015625,-0.48297119140625,stop
122.56,3,1,3,0,-0.1000,0.1500,0.2600,-2.1250,0.3125,-5.3125,0.59539794921875,-0.23840332031250,-0.59582519531250,-0.48339843750000,stop
122.57,3,1,3,0,-0.0800,0.1700,0.3700,-2.6250,0.8125,-4.8125,0.59521484375000,-0.23828125000000,-0.59576416015625,-0.48376464843750,stop
122.58,3,1,3,0,-0.1000,0.1800,0.4100,-3.8125,1.5000,-4.5625,0.59503173828125,-0.23803710937500,-0.59552001953125,-0.48437500000000,stop
122.59,3,1,3,0,-0.1300,0.1400,0.3400,-4.6250,1.8125,-4.4375,0.59490966796875,-0.23785400390625,-0.59521484375000,-0.48504638671875,stop
122.60,3,1,3,0,-0.2000,0.0000,0.2700,-5.0000,1.9375,-4.5625,0.59478759765625,-0.23767089843750,-0.59490966796875,-0.48565673828125,stop
122.61,3,1,3,0,-0.2300,-0.1100,0.2100,-5.7500,2.0000,-4.5625,0.59460449218750,-0.23760986328125,-0.59454345703125,-0.48632812500000,stop
122.62,3,1,3,0,-0.1900,-0.1800,0.1200,-6.0625,2.3750,-4.3125,0.59448242187500,-0.23760986328125,-0.59417724609375,-0.48693847656250,stop
122.63,3,1,3,0,-0.1500,-0.2300,0.0300,-6.0000,2.1250,-3.8750,0.59429931640625,-0.23760986328125,-0.59387207031250,-0.48748779296875,stop
122.64,3,1,3,0,-0.0600,-0.3200,-0.1700,-5.6875,1.6250,-3.8125,0.59411621093750,-0.23760986328125,-0.59362792968750,-0.48803710937500,stop
122.65,3,1,3,0,-0.0700,-0.4100,-0.1100,-4.2500,0.8750,-3.5625,0.59387207031250,-0.23760986328125,-0.59350585937500,-0.48846435546875,stop
122.66,3,1,3,0,-0.0400,-0.4400,-0.1200,-3.1875,1.1250,-3.2500,0.59375000000000,-0.23754882812500,-0.59338378906250,-0.48883056640625,stop
122.67,3,1,3,0,-0.0300,-0.4400,-0.1100,-2.8125,1.3125,-2.9375,0.59362792968750,-0.23748779296875,-0.59320068359375,-0.48913574218750,stop
122.68,3,1,3,0,-0.0200,-0.3500,-0.0500,-0.3125,1.8750,-2.6250,0.59362792968750,-0.23724365234375,-0.59320068359375,-0.48931884765625,stop
122.69,3,1,3,0,-0.0200,-0.2800,0.0800,0.7500,0.0000,-2.8750,0.59356689453125,-0.23718261718750,-0.59320068359375,-0.48937988281250,stop
122.70,3,1,3,0,-0.0500,-0.1400,0.1100,0.1875,0.2500,-2.6875,0.59350585937500,-0.23712158203125,-0.59326171875000,-0.48950195312500,stop
122.71,3,1,3,0,-0.1400,-0.1000,0.1700,0.4375,1.2500,-2.1875,0.59350585937500,-0.23699951171875,-0.59313964843750,-0.48962402343750,stop
122.72,3,1,3,0,-0.1800,-0.1000,0.2400,0.9375,1.1250,-2.0000,0.59350585937500,-0.23675537109375,-0.59320068359375,-0.48968505859375,stop
122.73,3,1,3,0,-0.1700,-0.1500,0.2800,0.9375,1.5625,-2.0625,0.59350585937500,-0.23651123046875,-0.59320068359375,-0.48980712890625,stop
122.74,3,1,3,0,-0.1800,-0.2300,0.1600,0.5000,1.8125,-1.5625,0.59356689453125,-0.23638916015625,-0.59313964843750,-0.48992919921875,stop
122.75,3,1,3,0,-0.1100,-0.2400,-0.0200,-0.3125,1.9375,-0.9375,0.59368896484375,-0.23626708984375,-0.59301757812500,-0.48999023437500,stop
122.76,3,1,3,0,-0.0700,-0.2400,-0.0500,-0.6250,1.8125,-0.3125,0.59375000000000,-0.23626708984375,-0.59283447265625,-0.49005126953125,stop
122.77,3,1,3,0,-0.0700,-0.2700,-0.0700,-0.6875,1.8750,-0.1250,0.59387207031250,-0.23626708984375,-0.59271240234375,-0.49005126953125,stop
122.78,3,1,3,0,-0.0700,-0.2400,-0.1000,0.0625,1.4375,0.0625,0.59399414062500,-0.23626708984375,-0.59259033203125,-0.49005126953125,stop
122.79,3,1,3,0,-0.0700,-0.1900,-0.0700,1.3750,1.0000,0.0000,0.59411621093750,-0.23620605468750,-0.59259033203125,-0.48999023437500,stop
122.80,3,1,3,0,-0.1500,-0.2300,0.0700,1.8125,0.8750,0.0000,0.59423828125000,-0.23608398437500,-0.59259033203125,-0.48986816406250,stop
122.81,3,1,3,0,-0.1000,-0.1400,0.1200,1.5000,1.3125,0.0625,0.59436035156250,-0.23602294921875,-0.59259033203125,-0.48980712890625,stop
122.82,3,1,3,0,-0.0700,-0.1600,0.2400,1.3750,1.1250,0.2500,0.59448242187500,-0.23590087890625,-0.59252929687500,-0.48974609375000,stop
122.83,3,1,3,0,-0.0500,-0.1900,0.2200,1.1875,0.9375,0.5625,0.59466552734375,-0.23583984375000,-0.59240722656250,-0.48968505859375,stop
122.84,3,1,3,0,-0.0800,-0.1900,0.1400,0.5625,1.5000,0.5625,0.59484863281250,-0.23577880859375,-0.59228515625000,-0.48968505859375,stop
122.86,3,1,3,0,-0.1100,-0.2400,0.0400,0.0625,1.7500,0.8125,0.59503173828125,-0.23577880859375,-0.59210205078125,-0.48962402343750,stop
122.86,3,1,3,0,-0.0900,-0.3300,-0.1200,0.1250,1.8750,0.9375,0.59521484375000,-0.23583984375000,-0.59197998046875,-0.48956298828125,stop
122.87,3,1,3,0,-0.1100,-0.3400,-0.1300,0.9375,1.6875,1.3750,0.59539794921875,-0.23583984375000,-0.59185791015625,-0.48944091796875,stop
122.88,3,1,3,0,-0.0600,-0.3300,-0.0900,1.7500,1.0000,1.8125,0.59564208984375,-0.23596191406250,-0.59179687500000,-0.48919677734375,stop
122.89,3,1,3,0,-0.0300,-0.2900,0.0300,2.3750,0.5625,2.0625,0.59582519531250,-0.23596191406250,-0.59179687500000,-0.48889160156250,stop
122.90,3,1,3,0,-0.0500,-0.2900,0.1000,2.8125,0.3125,1.9375,0.59606933593750,-0.23602294921875,-0.59185791015625,-0.48858642578125,stop
122.91,3,1,3,0,-0.0600,-0.2700,0.1500,2.9375,0.5625,1.6250,0.59625244140625,-0.23596191406250,-0.59185791015625,-0.48834228515625,stop
122.92,3,1,3,0,-0.0500,-0.2200,0.1200,3.0000,0.7500,1.4375,0.59649658203125,-0.23590087890625,-0.59185791015625,-0.48809814453125,stop
122.93,3,1,3,0,-0.0800,-0.1300,0.0200,3.1875,1.0625,1.5625,0.59674072265625,-0.23577880859375,-0.59185791015625,-0.48785400390625,stop
122.94,3,1,3,0,-0.1100,-0.1000,-0.0500,3.0625,1.3125,1.5625,0.59692382812500,-0.23565673828125,-0.59185791015625,-0.48767089843750,stop
122.95,3,1,3,0,-0.1400,-0.1200,-0.0900,3.0000,1.5625,1.8125,0.59716796875000,-0.23553466796875,-0.59185791015625,-0.48742675781250,stop
122.96,3,1,3,0,-0.1500,-0.1500,-0.0800,3.1875,1.6250,2.1875,0.59741210937500,-0.23547363281250,-0.59185791015625,-0.48718261718750,stop
122.97,3,1,3,0,-0.0800,-0.1200,-0.0500,3.2500,1.1875,2.3125,0.59765625000000,-0.23535156250000,-0.59191894531250,-0.48687744140625,stop
122.98,3,1,3,0,-0.0900,-0.0700,0.0000,3.3125,0.6250,2.3750,0.59783935546875,-0.23529052734375,-0.59197998046875,-0.48657226562500,stop
122.99,3,1,3,0,-0.1100,-0.0700,0.0000,3.3125,0.1875,2.4375,0.59802246093750,-0.23522949218750,-0.59204101562500,-0.48626708984375,stop
123.00,3,1,3,0,-0.1300,-0.0400,0.0100,3.0625,-0.3750,2.3125,0.59820556640625,-0.23522949218750,-0.59210205078125,-0.48602294921875,stop
123.01,3,1,3,0,-0.1300,-0.0700,0.0400,2.9375,-0.3125,2.1250,0.59838867187500,-0.23516845703125,-0.59222412109375,-0.48571777343750,stop
123.02,3,1,3,0,-0.1100,-0.0500,0.0800,3.0000,-0.0625,2.0000,0.59851074218750,-0.23510742187500,-0.59228515625000,-0.48547363281250,stop
123.03,3,1,3,0,-0.1200,-0.0300,0.0500,2.7500,0.0625,1.9375,0.59869384765625,-0.23504638671875,-0.59234619140625,-0.48522949218750,stop
123.04,3,1,3,0,-0.1300,0.0200,0.0000,2.3750,-0.1250,1.8750,0.59881591796875,-0.23504638671875,-0.59240722656250,-0.48504638671875,stop
123.05,3,1,3,0,-0.1500,0.0700,0.0000,2.3750,-0.4375,1.5000,0.59893798828125,-0.23498535156250,-0.59246826171875,-0.48480224609375,stop
123.06,3,1,3,0,-0.1400,0.1100,0.0200,2.5625,-0.5000,1.1875,0.59899902343750,-0.23486328125000,-0.59252929687500,-0.48461914062500,stop
123.07,3,1,3,0,-0.1500,0.0900,0.0300,2.4375,-0.5000,0.9375,0.59912109375000,-0.23480224609375,-0.59265136718750,-0.48449707031250,stop
123.08,3,1,3,0,-0.1400,0.0400,0.0400,2.4375,-0.3125,1.0000,0.59918212890625,-0.23468017578125,-0.59271240234375,-0.48431396484375,stop
123.09,3,1,3,0,-0.1500,0.0400,0.0200,1.7500,-0.2500,1.0000,0.59930419921875,-0.23461914062500,-0.59277343750000,-0.48419189453125,stop
123.10,3,1,3,0,-0.1300,0.0400,0.0600,1.1250,0.0000,0.8750,0.59936523437500,-0.23461914062500,-0.59277343750000,-0.48406982421875,stop
123.11,3,1,3,0,-0.1200,0.0100,0.1000,0.8125,0.0000,0.6250,0.59936523437500,-0.23455810546875,-0.59277343750000,-0.48400878906250,stop
123.12,3,1,3,0,-0.1500,0.0300,0.1600,0.3125,-0.1250,0.3750,0.59942626953125,-0.23455810546875,-0.59277343750000,-0.48406982421875,stop
123.13,3,1,3,0,-0.1800,0.0300,0.1400,0.0000,-0.3750,0.0000,0.59942626953125,-0.23455810546875,-0.59277343750000,-0.48406982421875,stop
123.14,3,1,3,0,-0.1700,0.0400,0.1600,-0.3750,-0.5625,-0.4375,0.59942626953125,-0.23455810546875,-0.59277343750000,-0.48406982421875,stop
123.15,3,1,3,0,-0.1600,0.0500,0.1400,-0.6875,-0.6875,-0.5625,0.59930419921875,-0.23455810546875,-0.59277343750000,-0.48419189453125,stop
123.16,3,1,3,0,-0.1400,0.0800,0.1200,-1.1875,-0.7500,-0.5625,0.59924316406250,-0.23455810546875,-0.59271240234375,-0.48431396484375,stop
123.17,3,1,3,0,-0.1400,0.1100,0.0700,-1.6875,-0.8125,-0.5625,0.59912109375000,-0.23461914062500,-0.59271240234375,-0.48443603515625,stop
123.19,3,1,3,0,-0.1100,0.1100,0.1000,-1.5625,-0.7500,-0.7500,0.59906005859375,-0.23468017578125,-0.59265136718750,-0.48455810546875,stop
123.20,3,1,3,0,-0.1600,0.0900,0.1200,-1.5625,-0.5000,-1.0625,0.59899902343750,-0.23468017578125,-0.59259033203125,-0.48474121093750,stop
123.20,3,1,3,0,-0.1300,0.1200,0.0800,-2.1250,-0.1875,-1.3125,0.59887695312500,-0.23461914062500,-0.59252929687500,-0.48498535156250,stop
123.21,3,1,3,0,-0.1400,0.1400,0.0800,-2.6250,-0.1250,-1.6250,0.59875488281250,-0.23468017578125,-0.59240722656250,-0.48522949218750,stop
123.22,3,1,3,0,-0.1600,0.1300,0.0900,-3.0625,0.0000,-1.8125,0.59863281250000,-0.23468017578125,-0.59234619140625,-0.48553466796875,stop
123.23,3,1,3,0,-0.1500,0.1000,0.0700,-3.3750,0.0000,-2.0000,0.59844970703125,-0.23468017578125,-0.59222412109375,-0.48583984375000,stop
123.24,3,1,3,0,-0.1400,0.0900,0.0600,-3.7500,0.0000,-2.3125,0.59826660156250,-0.23474121093750,-0.59210205078125,-0.48620605468750,stop
123.25,3,1,3,0,-0.1700,0.0800,0.0400,-3.7500,0.0000,-2.5625,0.59808349609375,-0.23474121093750,-0.59197998046875,-0.48657226562500,stop
123.26,3,1,3,0,-0.2000,0.1400,0.0400,-3.8750,-0.2500,-2.8125,0.59790039062500,-0.23474121093750,-0.59185791015625,-0.48693847656250,stop
123.28,3,1,3,0,-0.1700,0.1000,0.0600,-3.6250,-0.6875,-3.1875,0.59759521484375,-0.23480224609375,-0.59179687500000,-0.48736572265625,stop
123.29,3,1,3,0,-0.1400,0.0700,0.0400,-3.3750,-1.0000,-3.6875,0.59735107421875,-0.23480224609375,-0.59179687500000,-0.48773193359375,stop
123.29,3,1,3,0,-0.1300,0.0600,0.0800,-3.1875,-1.1875,-4.1250,0.59704589843750,-0.23474121093750,-0.59179687500000,-0.48809814453125,stop
123.30,3,1,3,0,-0.1700,0.1400,0.0900,-3.5000,-1.3125,-4.0625,0.59667968750000,-0.23474121093750,-0.59179687500000,-0.48852539062500,stop
123.31,3,1,3,0,-0.1700,0.1400,0.0900,-3.8750,-1.0000,-4.3125,0.59637451171875,-0.23468017578125,-0.59173583984375,-0.48895263671875,stop
123.32,3,1,3,0,-0.1800,0.2000,0.0600,-4.3750,-0.5625,-4.3125,0.59606933593750,-0.23468017578125,-0.59167480468750,-0.48944091796875,stop
123.33,3,1,3,0,-0.1700,0.2100,0.0500,-4.3125,-0.3125,-4.3750,0.59576416015625,-0.23455810546875,-0.59155273437500,-0.48999023437500,stop
123.34,3,1,3,0,-0.1700,0.2000,0.0700,-4.3125,0.0000,-4.5000,0.59545898437500,-0.23449707031250,-0.59149169921875,-0.49053955078125,stop
123.36,3,1,3,0,-0.1500,0.1700,0.1000,-4.3750,0.1250,-4.6875,0.59515380859375,-0.23437500000000,-0.59136962890625,-0.49102783203125,stop
123.37,3,1,3,0,-0.1500,0.1700,0.1200,-4.5625,0.6250,-4.6875,0.59484863281250,-0.23425292968750,-0.59124755859375,-0.49163818359375,stop
123.37,3,1,3,0,-0.1600,0.2400,0.1200,-4.5000,1.0625,-4.9375,0.59460449218750,-0.23406982421875,-0.59106445312500,-0.49218750000000,stop
123.38,3,1,3,0,-0.1500,0.2900,0.0700,-4.6250,1.2500,-5.5000,0.59429931640625,-0.23382568359375,-0.59094238281250,-0.49285888671875,stop
123.39,3,1,3,0,-0.1700,0.3500,0.0600,-4.6250,1.3750,-6.2500,0.59399414062500,-0.23352050781250,-0.59082031250000,-0.49359130859375,stop
123.40,3,1,3,0,-0.1900,0.3400,0.0200,-4.8125,1.3125,-7.3750,0.59356689453125,-0.23315429687500,-0.59069824218750,-0.49438476562500,stop
123.41,3,1,3,0,-0.2300,0.4000,0.0100,-5.2500,1.0000,-8.4375,0.59301757812500,-0.23278808593750,-0.59063720703125,-0.49523925781250,stop
123.42,3,1,3,0,-0.2300,0.4100,0.0000,-5.7500,0.3750,-9.6250,0.59240722656250,-0.23229980468750,-0.59063720703125,-0.49621582031250,stop
123.43,3,1,3,0,-0.2500,0.3800,0.0600,-5.8750,0.0000,-10.4375,0.59167480468750,-0.23187255859375,-0.59069824218750,-0.49725341796875,stop
123.44,3,1,3,0,-0.1900,0.4000,0.0900,-6.3750,-0.1250,-10.9375,0.59100341796875,-0.23132324218750,-0.59069824218750,-0.49835205078125,stop
123.46,3,1,3,0,-0.1800,0.3800,0.1100,-7.4375,-0.1875,-11.6875,0.59020996093750,-0.23089599609375,-0.59063720703125,-0.49951171875000,stop
123.46,3,1,3,0,-0.2000,0.3500,0.1000,-8.1250,0.3125,-12.3125,0.58941650390625,-0.23040771484375,-0.59051513671875,-0.50073242187500,stop
123.47,3,1,3,0,-0.1600,0.3300,0.1400,-8.8750,1.1250,-12.6250,0.58868408203125,-0.22998046875000,-0.59033203125000,-0.50201416015625,stop
123.48,3,1,3,0,-0.2600,0.2700,0.0500,-9.9375,1.1250,-13.0625,0.58789062500000,-0.22955322265625,-0.59014892578125,-0.50341796875000,stop
123.49,3,1,3,0,-0.2800,0.1500,0.0400,-10.8750,1.0625,-13.5000,0.58709716796875,-0.22924804687500,-0.58990478515625,-0.50476074218750,stop
123.50,3,1,3,0,-0.2400,0.0600,-0.0100,-11.5625,0.5625,-13.6250,0.58630371093750,-0.22900390625000,-0.58959960937500,-0.50616455078125,stop
123.51,3,1,3,0,-0.1700,0.0000,0.0100,-12.7500,-0.6250,-13.5000,0.58538818359375,-0.22894287109375,-0.58935546875000,-0.50750732421875,stop
123.52,3,1,3,0,-0.1700,0.0400,0.0600,-12.8750,-1.4375,-13.1875,0.58447265625000,-0.22900390625000,-0.58911132812500,-0.50885009765625,stop
123.54,3,1,3,0,-0.1400,0.0600,0.0500,-12.3750,-1.7500,-12.6250,0.58355712890625,-0.22900390625000,-0.58892822265625,-0.51007080078125,stop
123.54,3,1,3,0,-0.1500,-0.0100,0.0300,-12.3750,-1.8125,-12.6250,0.58264160156250,-0.22906494140625,-0.58868408203125,-0.51135253906250,stop
123.57,3,1,3,0,0.0000,-0.5700,-0.0700,-13.4375,-2.1875,-12.3125,0.58081054687500,-0.22930908203125,-0.58819580078125,-0.51385498046875,stop
123.58,3,1,3,0,0.0700,-0.7800,-0.1000,-13.1875,-2.6875,-11.9375,0.57989501953125,-0.22949218750000,-0.58801269531250,-0.51513671875000,stop
123.59,3,1,3,0,0.1100,-0.9100,-0.0900,-12.1250,-3.1250,-11.0625,0.57897949218750,-0.22967529296875,-0.58782958984375,-0.51623535156250,stop
123.60,3,1,3,0,0.2000,-0.8300,-0.2200,-10.4375,-3.6250,-10.3125,0.57812500000000,-0.22979736328125,-0.58776855468750,-0.51721191406250,stop
123.61,3,1,3,0,0.1300,-0.8600,-0.2900,-8.0625,-4.1875,-9.5000,0.57727050781250,-0.22991943359375,-0.58776855468750,-0.51800537109375,stop
123.62,3,1,3,0,0.1100,-0.7300,-0.3200,-6.3125,-4.9375,-8.6250,0.57653808593750,-0.23004150390625,-0.58795166015625,-0.51867675781250,stop
123.62,3,1,3,0,0.1800,-0.4100,-0.4900,-5.0625,-5.0625,-7.8125,0.57580566406250,-0.23010253906250,-0.58813476562500,-0.51922607421875,stop
123.63,3,1,3,0,0.2400,-0.3700,-0.5100,-3.1250,-5.1250,-7.3125,0.57513427734375,-0.23010253906250,-0.58837890625000,-0.51965332031250,stop
123.64,3,1,3,0,0.4100,-0.3400,-0.5300,-1.6875,-4.5000,-6.7500,0.57458496093750,-0.23004150390625,-0.58868408203125,-0.52001953125000,stop
123.65,3,1,3,0,0.4400,-0.2900,-0.6900,-2.2500,-4.0625,-6.6250,0.57403564453125,-0.23004150390625,-0.58886718750000,-0.52038574218750,stop
123.66,3,1,3,0,0.0500,-0.5100,-1.1200,-4.4375,-2.8750,-6.9375,0.57348632812500,-0.23004150390625,-0.58898925781250,-0.52087402343750,stop
123.68,3,1,3,0,-0.2200,-0.8300,-1.4000,-6.8750,-2.0625,-7.9375,0.57287597656250,-0.23004150390625,-0.58892822265625,-0.52160644531250,stop
123.69,3,1,3,0,-0.4100,-1.3300,-1.7200,-8.5625,-1.6250,-8.5000,0.57220458984375,-0.23010253906250,-0.58880615234375,-0.52246093750000,stop
123.70,3,1,3,0,-0.7900,-1.7500,-1.9300,-8.6875,-3.2500,-9.1250,0.57147216796875,-0.23022460937500,-0.58874511718750,-0.52325439453125,stop
123.71,3,1,3,0,-1.3200,-2.7000,-2.4300,-2.8125,-6.3125,-6.0000,0.57080078125000,-0.23034667968750,-0.58905029296875,-0.52362060546875,stop
123.71,3,1,3,0,-1.6000,-3.1400,-2.5300,7.6250,-13.6875,-3.5625,0.57006835937500,-0.23046875000000,-0.59014892578125,-0.52307128906250,stop
123.72,3,1,3,0,-2.0300,-3.5700,-2.6600,17.6250,-20.1250,0.9375,0.56945800781250,-0.23052978515625,-0.59191894531250,-0.52172851562500,stop
123.73,3,1,3,0,-2.4400,-4.3000,-2.8600,28.9375,-22.3125,7.3125,0.56921386718750,-0.23052978515625,-0.59423828125000,-0.51940917968750,stop
123.74,3,1,3,0,-2.1800,-4.7000,-2.8300,41.1250,-20.5000,15.3125,0.56964111328125,-0.23022460937500,-0.59680175781250,-0.51611328125000,stop
123.75,3,1,3,0,-1.6400,-5.0300,-2.7900,53.5625,-16.6875,25.2500,0.57098388671875,-0.22961425781250,-0.59954833984375,-0.51165771484375,stop
123.77,3,1,3,0,-0.9700,-5.1900,-2.7400,64.2500,-12.6250,35.6250,0.57318115234375,-0.22888183593750,-0.60229492187500,-0.50628662109375,stop
123.78,3,1,3,0,-0.2500,-5.1800,-2.5700,70.8750,-8.7500,45.6875,0.57617187500000,-0.22814941406250,-0.60498046875000,-0.50006103515625,stop
123.79,3,1,3,0,-0.3000,-5.1900,-2.2300,74.1250,-9.5625,53.4375,0.57940673828125,-0.22766113281250,-0.60760498046875,-0.49322509765625,stop
123.79,3,1,3,0,-0.4400,-5.1400,-1.7300,74.5625,-15.4375,59.5625,0.58264160156250,-0.22772216796875,-0.61041259765625,-0.48590087890625,stop
123.80,3,1,3,0,-0.6300,-4.8200,-0.8200,67.6250,-25.3750,65.1875,0.58538818359375,-0.22888183593750,-0.61322021484375,-0.47845458984375,stop
123.81,3,1,3,0,-0.6000,-2.6900,1.1000,49.9375,-34.2500,72.1250,0.58752441406250,-0.23162841796875,-0.61560058593750,-0.47131347656250,stop
123.82,3,1,3,0,-0.2900,-1.3300,1.6800,31.6875,-42.6875,77.8125,0.58911132812500,-0.23596191406250,-0.61749267578125,-0.46472167968750,stop
123.84,3,1,3,0,0.0900,-0.2400,1.9600,23.2500,-48.5625,84.1875,0.59033203125000,-0.24133300781250,-0.61920166015625,-0.45812988281250,stop
123.84,3,1,3,0,0.0900,-0.2400,1.9600,23.2500,-48.5625,84.1875,0.59033203125000,-0.24133300781250,-0.61920166015625,-0.45812988281250,stop
123.84,3,1,3,0,0.9800,0.7000,1.7100,25.5000,-49.3750,88.6250,0.59173583984375,-0.24676513671875,-0.62084960937500,-0.45104980468750,stop
123.86,3,1,3,0,1.0700,1.2200,1.7400,34.0625,-47.6875,91.3125,0.59344482421875,-0.25189208984375,-0.62268066406250,-0.44342041015625,moving
123.87,3,1,3,0,0.3600,2.3200,1.5800,30.6875,-37.6250,88.2500,0.59735107421875,-0.26135253906250,-0.62542724609375,-0.42858886718750,moving
123.88,3,1,3,0,-0.2200,3.4800,0.9000,24.1875,-32.1875,82.7500,0.59924316406250,-0.26580810546875,-0.62609863281250,-0.42218017578125,moving
123.89,3,1,3,0,-0.2400,4.1700,0.5000,15.1250,-28.5625,74.8125,0.60076904296875,-0.27020263671875,-0.62640380859375,-0.41674804687500,moving
123.90,3,1,3,0,-0.0900,5.1000,-0.0300,0.1875,-28.6250,63.3125,0.60150146484375,-0.27471923828125,-0.62640380859375,-0.41271972656250,moving
123.91,3,1,3,0,0.4000,6.1200,-0.4200,-14.5625,-32.6875,50.1250,0.60119628906250,-0.27941894531250,-0.62634277343750,-0.41009521484375,moving
123.92,3,1,3,0,0.8100,8.5300,-0.4500,-21.8750,-38.1250,36.1250,0.59985351562500,-0.28387451171875,-0.62670898437500,-0.40844726562500,moving
123.94,3,1,3,0,0.7500,8.7000,0.3400,-12.8750,-47.5000,20.1250,0.59765625000000,-0.28735351562500,-0.62823486328125,-0.40692138671875,moving
123.95,3,1,3,0,0.5400,9.1900,1.0800,10.7500,-54.3125,5.5000,0.59515380859375,-0.28906250000000,-0.63128662109375,-0.40466308593750,moving
123.96,3,1,3,0,1.3600,7.8100,2.8900,41.4375,-49.0000,-10.6875,0.59307861328125,-0.28802490234375,-0.63555908203125,-0.40167236328125,moving
123.96,3,1,3,0,1.8900,6.7500,3.5000,59.0000,-40.6875,-26.1250,0.59136962890625,-0.28491210937500,-0.64038085937500,-0.39874267578125,moving
123.97,3,1,3,0,1.9800,6.7800,3.8400,50.5000,-37.6875,-42.2500,0.58905029296875,-0.28125000000000,-0.64514160156250,-0.39715576171875,moving
123.99,3,1,3,0,1.9500,6.6200,4.0300,27.1250,-33.3125,-55.9375,0.58587646484375,-0.27783203125000,-0.64916992187500,-0.39770507812500,moving
124.00,3,1,3,0,1.7300,6.5500,3.3900,3.4375,-19.5000,-66.2500,0.58251953125000,-0.27453613281250,-0.65185546875000,-0.40045166015625,moving
124.00,3,1,3,0,1.2700,6.3500,2.4800,-13.3125,-0.1250,-75.6250,0.57952880859375,-0.27087402343750,-0.65319824218750,-0.40502929687500,moving
124.02,3,1,3,0,0.8400,6.2300,1.9000,-21.6250,8.9375,-85.0000,0.57653808593750,-0.26678466796875,-0.65399169921875,-0.41082763671875,moving
124.03,3,1,3,0,0.4300,5.7800,1.2400,-26.7500,9.9375,-93.5625,0.57305908203125,-0.26239013671875,-0.65466308593750,-0.41729736328125,moving
124.04,3,1,3,0,0.3700,5.0400,0.7400,-27.1875,6.9375,-101.0000,0.56915283203125,-0.25769042968750,-0.65563964843750,-0.42407226562500,moving
124.04,3,1,3,0,0.5700,4.3800,0.9500,-27.0000,5.4375,-107.6250,0.56481933593750,-0.25262451171875,-0.65673828125000,-0.43109130859375,moving
124.05,3,1,3,0,0.5600,3.2000,1.6500,-25.5625,5.4375,-110.3750,0.56036376953125,-0.24725341796875,-0.65789794921875,-0.43817138671875,moving
124.06,3,1,3,0,0.8100,0.4700,2.5000,-31.9375,9.5000,-109.8125,0.55596923828125,-0.24212646484375,-0.65856933593750,-0.44561767578125,moving
124.08,3,1,3,0,1.0400,-0.4900,1.7900,-53.4375,20.3125,-108.1875,0.55175781250000,-0.23760986328125,-0.65777587890625,-0.45434570312500,moving
124.09,3,1,3,0,1.3000,-1.2200,0.9000,-75.2500,30.0625,-105.0000,0.54772949218750,-0.23394775390625,-0.65545654296875,-0.46435546875000,moving
124.09,3,1,3,0,1.3000,-1.2200,0.9000,-75.2500,30.0625,-105.0000,0.54772949218750,-0.23394775390625,-0.65545654296875,-0.46435546875000,moving
124.10,3,1,3,0,1.8000,-1.9800,0.4200,-84.0625,34.1250,-102.2500,0.54376220703125,-0.23071289062500,-0.65246582031250,-0.47479248046875,moving
124.11,3,1,3,0,2.2800,-3.5100,0.0700,-74.8125,38.1875,-101.5000,0.54016113281250,-0.22680664062500,-0.64953613281250,-0.48461914062500,moving
124.12,3,1,3,0,2.4500,-4.5600,-0.3600,-61.5000,42.3750,-100.0000,0.53710937500000,-0.22222900390625,-0.64685058593750,-0.49365234375000,moving
124.12,3,1,3,0,2.3900,-5.6200,-0.7700,-46.9375,43.6250,-97.0625,0.53442382812500,-0.21704101562500,-0.64465332031250,-0.50170898437500,moving
124.13,3,1,3,0,1.7800,-7.7500,-1.8300,-34.2500,39.0625,-90.1250,0.53204345703125,-0.21179199218750,-0.64300537109375,-0.50860595703125,moving
124.14,3,1,3,0,1.8300,-8.5800,-2.5200,-24.8125,33.3125,-77.5000,0.52996826171875,-0.20709228515625,-0.64172363281250,-0.51422119140625,moving
124.15,3,1,3,0,2.2100,-9.2000,-3.3300,-16.0625,25.4375,-62.0625,0.52832031250000,-0.20318603515625,-0.64093017578125,-0.51843261718750,moving
124.17,3,1,3,0,2.5500,-9.8500,-4.1400,-5.0000,18.8750,-42.8750,0.52734375000000,-0.20013427734375,-0.64056396484375,-0.52105712890625,moving
124.18,3,1,3,0,3.3700,-9.6900,-5.7600,13.1250,16.8125,-26.6875,0.52728271484375,-0.19732666015625,-0.64086914062500,-0.52185058593750,moving
124.21,3,1,3,0,2.4600,-9.6400,-4.7100,93.5000,22.4375,18.4375,0.53411865234375,-0.18585205078125,-0.64831542968750,-0.50982666015625,moving
124.21,3,1,3,0,2.4600,-9.6400,-4.7100,93.5000,22.4375,18.4375,0.53411865234375,-0.18585205078125,-0.64831542968750,-0.50982666015625,moving
124.21,3,1,3,0,2.0300,-8.8600,-2.5000,91.4375,21.4375,33.8125,0.53826904296875,-0.18255615234375,-0.65081787109375,-0.50335693359375,moving
124.22,3,1,3,0,1.9100,-8.4400,-1.5200,86.8750,9.2500,48.2500,0.54235839843750,-0.18084716796875,-0.65338134765625,-0.49627685546875,moving
124.23,3,1,3,0,1.8100,-7.8700,-0.4000,81.2500,-2.4375,59.5625,0.54608154296875,-0.18054199218750,-0.65600585937500,-0.48870849609375,moving
124.24,3,1,3,0,1.6900,-6.0100,0.5000,73.9375,-7.8125,70.5625,0.54980468750000,-0.18145751953125,-0.65838623046875,-0.48095703125000,moving
124.26,3,1,3,0,1.7900,-4.7300,0.5700,68.8125,-7.0625,82.5000,0.55395507812500,-0.18322753906250,-0.66027832031250,-0.47283935546875,moving
124.27,3,1,3,0,1.6100,-3.8600,0.1800,64.9375,-2.6250,93.6250,0.55865478515625,-0.18560791015625,-0.66156005859375,-0.46447753906250,moving
124.28,3,1,3,0,1.4000,-3.2700,0.0000,62.9375,0.6250,103.7500,0.56396484375000,-0.18853759765625,-0.66235351562500,-0.45574951171875,moving
124.29,3,1,3,0,1.2500,-1.9300,-0.1200,61.0625,1.0625,112.0000,0.56945800781250,-0.19201660156250,-0.66284179687500,-0.44665527343750,moving
124.29,3,1,3,0,1.2300,-1.1500,-0.1300,56.8750,-1.6250,118.2500,0.57489013671875,-0.19616699218750,-0.66308593750000,-0.43737792968750,moving
124.30,3,1,3,0,1.1700,-0.2900,0.0600,51.1875,-6.0625,122.3125,0.58007812500000,-0.20092773437500,-0.66320800781250,-0.42810058593750,moving
124.31,3,1,3,0,1.0300,0.6900,0.0000,40.5000,-8.5000,122.9375,0.58489990234375,-0.20635986328125,-0.66296386718750,-0.41931152343750,moving
124.32,3,1,3,0,0.9200,3.6500,-0.8500,19.5000,-13.7500,117.5000,0.58874511718750,-0.21270751953125,-0.66217041015625,-0.41186523437500,moving
124.34,3,1,3,0,1.0800,5.5900,-1.3000,-3.7500,-25.1250,105.5625,0.59100341796875,-0.21990966796875,-0.66131591796875,-0.40612792968750,moving
124.35,3,1,3,0,1.0800,7.6300,-1.6400,-18.1875,-38.0000,89.6250,0.59167480468750,-0.22741699218750,-0.66088867187500,-0.40179443359375,moving
124.35,3,1,3,0,1.0800,7.6300,-1.6400,-18.1875,-38.0000,89.6250,0.59167480468750,-0.22741699218750,-0.66088867187500,-0.40179443359375,moving
124.36,3,1,3,0,-0.4800,10.1700,-0.5400,-7.3125,-49.0000,76.3750,0.59136962890625,-0.23394775390625,-0.66162109375000,-0.39727783203125,moving
124.37,3,1,3,0,-1.1800,10.5300,0.4400,24.8750,-59.0625,63.6875,0.59063720703125,-0.23840332031250,-0.66424560546875,-0.39129638671875,moving
124.37,3,1,3,0,-1.8300,11.1100,1.0900,54.0625,-48.5000,58.0000,0.59094238281250,-0.24066162109375,-0.66735839843750,-0.38409423828125,moving
124.38,3,1,3,0,-2.0600,10.4200,1.6500,76.6250,-25.6875,51.7500,0.59277343750000,-0.24060058593750,-0.67010498046875,-0.37640380859375,moving
124.39,3,1,3,0,-0.2000,8.0500,2.2800,80.0625,-9.7500,42.1875,0.59527587890625,-0.23925781250000,-0.67236328125000,-0.36932373046875,moving
124.40,3,1,3,0,0.2900,8.1500,2.1700,54.6250,1.8750,26.3125,0.59735107421875,-0.23791503906250,-0.67346191406250,-0.36480712890625,moving
124.42,3,1,3,0,0.1500,8.4600,2.2000,26.6250,7.2500,10.1875,0.59863281250000,-0.23687744140625,-0.67370605468750,-0.36285400390625,moving
124.43,3,1,3,0,-0.0800,8.7300,2.0100,10.6875,6.7500,-6.6875,0.59906005859375,-0.23571777343750,-0.67382812500000,-0.36273193359375,moving
124.44,3,1,3,0,-0.7000,8.7600,0.8500,0.8125,7.6250,-26.5625,0.59869384765625,-0.23382568359375,-0.67401123046875,-0.36419677734375,moving
124.45,3,1,3,0,-1.1700,8.6100,0.5700,-7.2500,5.5000,-45.8125,0.59735107421875,-0.23132324218750,-0.67437744140625,-0.36718750000000,moving
124.46,3,1,3,0,-1.6600,8.2600,0.5500,-12.6250,2.1250,-62.8125,0.59521484375000,-0.22821044921875,-0.67517089843750,-0.37121582031250,moving
124.46,3,1,3,0,-2.3400,7.1200,0.2300,-20.0000,0.0625,-77.1250,0.59228515625000,-0.22467041015625,-0.67602539062500,-0.37646484375000,moving
124.47,3,1,3,0,-2.3000,6.5000,0.1900,-28.4375,-0.5000,-88.3125,0.58880615234375,-0.22088623046875,-0.67681884765625,-0.38269042968750,moving
124.49,3,1,3,0,-2.1000,5.9100,0.0600,-37.0000,3.2500,-95.2500,0.58508300781250,-0.21697998046875,-0.67718505859375,-0.38989257812500,moving
124.50,3,1,3,0,-1.7900,4.8300,-0.2100,-45.8750,8.1250,-99.0625,0.58123779296875,-0.21313476562500,-0.67706298828125,-0.39782714843750,moving
124.52,3,1,3,0,-0.7100,1.1500,-1.0200,-64.2500,13.9375,-101.8125,0.57336425781250,-0.20611572265625,-0.67529296875000,-0.41564941406250,moving
124.53,3,1,3,0,-0.2800,0.0300,-1.1400,-70.2500,11.3750,-99.8125,0.56909179687500,-0.20324707031250,-0.67395019531250,-0.42498779296875,moving
124.54,3,1,3,0,0.0000,-1.1300,-1.3200,-80.1875,10.8125,-96.3750,0.56469726562500,-0.20111083984375,-0.67205810546875,-0.43469238281250,moving
124.54,3,1,3,0,0.8000,-2.5200,-0.0100,-82.6875,9.6875,-93.8750,0.56018066406250,-0.19927978515625,-0.67010498046875,-0.44433593750000,moving
124.55,3,1,3,0,1.1700,-3.6500,0.4800,-78.6875,8.0000,-91.8750,0.55566406250000,-0.19738769531250,-0.66821289062500,-0.45361328125000,moving
124.57,3,1,3,0,1.5500,-4.6600,0.8400,-78.1250,7.0625,-88.8750,0.55120849609375,-0.19561767578125,-0.66625976562500,-0.46258544921875,moving
124.58,3,1,3,0,2.2500,-5.9700,0.4300,-78.4375,8.3125,-84.3125,0.54687500000000,-0.19415283203125,-0.66412353515625,-0.47137451171875,moving
124.59,3,1,3,0,2.6300,-6.2800,-0.0900,-74.8125,10.4375,-78.6250,0.54296875000000,-0.19268798828125,-0.66186523437500,-0.47961425781250,moving
124.60,3,1,3,0,3.1300,-6.6700,-0.9400,-66.8125,15.7500,-70.2500,0.53979492187500,-0.19110107421875,-0.65948486328125,-0.48706054687500,moving
124.61,3,1,3,0,3.5600,-7.0800,-1.7500,-52.3125,21.6250,-57.5000,0.53765869140625,-0.18927001953125,-0.65716552734375,-0.49316406250000,moving
124.61,3,1,3,0,3.5600,-7.0800,-1.7500,-52.3125,21.6250,-57.5000,0.53765869140625,-0.18927001953125,-0.65716552734375,-0.49316406250000,moving
124.62,3,1,3,0,3.4200,-8.9300,-3.1100,-35.2500,27.2500,-39.9375,0.53692626953125,-0.18750000000000,-0.65502929687500,-0.49749755859375,moving
124.62,3,1,3,0,3.5300,-9.5900,-3.7800,-14.5000,30.8125,-21.8125,0.53753662109375,-0.18554687500000,-0.65325927734375,-0.49987792968750,moving
124.63,3,1,3,0,3.3500,-9.9800,-4.4700,8.0625,28.4375,-4.8750,0.53906250000000,-0.18365478515625,-0.65240478515625,-0.50012207031250,moving
124.64,3,1,3,0,3.2700,-11.2100,-4.9300,35.0000,20.8750,16.5000,0.54150390625000,-0.18206787109375,-0.65264892578125,-0.49768066406250,moving
124.66,3,1,3,0,3.1800,-12.7400,-4.9600,65.3125,12.1250,34.3125,0.54473876953125,-0.18041992187500,-0.65435791015625,-0.49249267578125,moving
124.67,3,1,3,0,3.1100,-12.1500,-4.1900,87.1250,5.0625,45.9375,0.54833984375000,-0.17871093750000,-0.65710449218750,-0.48535156250000,moving
124.68,3,1,3,0,2.7100,-11.9800,-2.4200,96.1250,0.5625,63.1250,0.55255126953125,-0.17773437500000,-0.66015625000000,-0.47680664062500,moving
124.69,3,1,3,0,2.0800,-7.4900,0.6300,78.4375,-3.8750,72.3125,0.55651855468750,-0.17828369140625,-0.66241455078125,-0.46868896484375,moving
124.70,3,1,3,0,1.9800,-4.8400,1.5300,54.0625,-6.8125,83.0625,0.56036376953125,-0.18078613281250,-0.66363525390625,-0.46136474609375,moving
124.71,3,1,3,0,1.8300,-2.8700,1.9000,50.0000,-8.4375,93.7500,0.56445312500000,-0.18414306640625,-0.66455078125000,-0.45367431640625,moving
124.71,3,1,3,0,1.7700,-1.4600,1.9100,57.2500,-6.8125,100.9375,0.56896972656250,-0.18750000000000,-0.66552734375000,-0.44519042968750,moving
124.72,3,1,3,0,1.6600,-0.4000,1.3000,59.1250,-2.9375,104.6875,0.57385253906250,-0.19079589843750,-0.66619873046875,-0.43646240234375,moving
124.74,3,1,3,0,1.6600,-0.2700,1.0900,56.4375,-4.3750,107.1250,0.57861328125000,-0.19439697265625,-0.66674804687500,-0.42767333984375,moving
124.75,3,1,3,0,1.5300,-0.2000,0.9100,55.9375,-5.4375,110.2500,0.58331298828125,-0.19824218750000,-0.66717529296875,-0.41870117187500,moving
124.76,3,1,3,0,1.0600,0.1100,0.0500,48.9375,-3.6250,113.3750,0.58807373046875,-0.20251464843750,-0.66711425781250,-0.40991210937500,moving
124.77,3,1,3,0,0.8100,1.1700,-0.6300,37.1250,-3.2500,115.1875,0.59265136718750,-0.20745849609375,-0.66656494140625,-0.40173339843750,moving
124.78,3,1,3,0,0.5800,2.4200,-1.2000,18.8750,-9.1250,112.8125,0.59643554687500,-0.21343994140625,-0.66558837890625,-0.39459228515625,moving
124.79,3,1,3,0,0.2100,3.9700,-1.6000,-1.6875,-18.5625,104.3125,0.59893798828125,-0.22027587890625,-0.66455078125000,-0.38885498046875,moving
124.79,3,1,3,0,-0.4900,7.1900,-1.6600,-17.8125,-31.1250,89.5000,0.59979248046875,-0.22747802734375,-0.66381835937500,-0.38452148437500,moving
124.80,3,1,3,0,-1.3200,8.5800,-1.2400,-12.8125,-44.4375,75.8125,0.59948730468750,-0.23406982421875,-0.66418457031250,-0.38037109375000,moving
124.82,3,1,3,0,-1.9100,9.5000,-0.5100,6.7500,-56.2500,64.9375,0.59857177734375,-0.23931884765625,-0.66595458984375,-0.37542724609375,moving
124.84,3,1,3,0,-2.0500,11.3500,1.2100,38.3125,-48.9375,49.8750,0.59704589843750,-0.24578857421875,-0.67144775390625,-0.36370849609375,moving
124.85,3,1,3,0,-1.7000,11.0600,1.6700,44.3125,-37.5000,39.5625,0.59704589843750,-0.24700927734375,-0.67395019531250,-0.35821533203125,moving
124.86,3,1,3,0,-1.4900,10.5400,2.1400,38.8125,-29.3750,26.0000,0.59698486328125,-0.24743652343750,-0.67608642578125,-0.35394287109375,moving
124.87,3,1,3,0,-1.4100,10.5000,2.2900,21.3750,-21.7500,11.9375,0.59649658203125,-0.24768066406250,-0.67767333984375,-0.35156250000000,moving
124.87,3,1,3,0,-1.6700,10.7200,2.2000,-9.4375,-19.9375,-5.3125,0.59497070312500,-0.24847412109375,-0.67852783203125,-0.35198974609375,moving
124.89,3,1,3,0,-1.9100,10.7000,1.6600,-28.3125,-22.1250,-22.4375,0.59234619140625,-0.24926757812500,-0.67932128906250,-0.35437011718750,moving
124.90,3,1,3,0,-1.8800,9.9000,1.0700,-42.8750,-22.5625,-40.2500,0.58880615234375,-0.24975585937500,-0.67999267578125,-0.35852050781250,moving
124.90,3,1,3,0,-1.8800,9.9000,1.0700,-42.8750,-22.5625,-40.2500,0.58880615234375,-0.24975585937500,-0.67999267578125,-0.35852050781250,moving
124.91,3,1,3,0,-1.8100,7.6600,0.9000,-54.2500,-16.5625,-56.0625,0.58483886718750,-0.24969482421875,-0.68035888671875,-0.36431884765625,moving
124.92,3,1,3,0,-1.6000,6.4800,0.9400,-65.0000,-9.9375,-69.6250,0.58056640625000,-0.24914550781250,-0.68029785156250,-0.37152099609375,moving
124.93,3,1,3,0,-1.3100,5.1500,0.7100,-71.0625,-5.6250,-80.7500,0.57604980468750,-0.24810791015625,-0.68005371093750,-0.37976074218750,moving
124.94,3,1,3,0,-0.9700,3.7700,0.3700,-75.6250,-1.7500,-88.8125,0.57128906250000,-0.24658203125000,-0.67950439453125,-0.38867187500000,moving
124.95,3,1,3,0,-0.0400,2.3000,-0.5000,-79.7500,4.2500,-93.0000,0.56658935546875,-0.24487304687500,-0.67858886718750,-0.39813232421875,moving
124.96,3,1,3,0,0.4300,1.7500,-0.6700,-82.3125,6.0000,-95.5625,0.56182861328125,-0.24298095703125,-0.67742919921875,-0.40789794921875,moving
124.97,3,1,3,0,0.6700,1.2100,-0.4600,-80.2500,2.8125,-98.5000,0.55676269531250,-0.24096679687500,-0.67645263671875,-0.41754150390625,moving
124.98,3,1,3,0,1.2900,0.3600,0.7200,-73.1250,-1.6875,-101.3125,0.55133056640625,-0.23852539062500,-0.67602539062500,-0.42675781250000,moving
124.99,3,1,3,0,1.5300,0.0700,1.2300,-69.5625,-3.2500,-102.5000,0.54583740234375,-0.23590087890625,-0.67565917968750,-0.43579101562500,moving
125.00,3,1,3,0,1.7100,-0.0300,1.6100,-72.7500,3.8750,-103.6250,0.54058837890625,-0.23303222656250,-0.67480468750000,-0.44506835937500,moving
125.01,3,1,3,0,1.6700,-0.2200,1.7900,-77.5625,15.6875,-104.5625,0.53582763671875,-0.22985839843750,-0.67315673828125,-0.45495605468750,moving
125.02,3,1,3,0,1.4100,-1.1700,1.2100,-85.6875,27.8125,-104.8750,0.53149414062500,-0.22656250000000,-0.67047119140625,-0.46545410156250,moving
125.03,3,1,3,0,1.4600,-1.7900,0.5100,-100.6875,38.1875,-106.0000,0.52740478515625,-0.22338867187500,-0.66668701171875,-0.47698974609375,moving
125.04,3,1,3,0,1.7300,-2.6500,0.2200,-101.6875,42.6250,-107.0000,0.52337646484375,-0.22003173828125,-0.66247558593750,-0.48864746093750,moving
125.05,3,1,3,0,2.0300,-3.7300,-0.0200,-84.8125,41.6250,-107.5000,0.51947021484375,-0.21582031250000,-0.65899658203125,-0.49926757812500,moving
