timestamp,calib_mag,calib_accel,calib_gyro,calib_sys,lacc_x,lacc_y,lacc_z,gyro_x,gyro_y,gyro_z,quat_w,quat_x,quat_y,quat_z
1722925434.75,0,0,0,0,0.0000,0.0000,0.0000,0.0000,0.0000,0.0000,0.00000000000000,0.00000000000000,0.00000000000000,0.00000000000000
1722925434.75,0,0,0,0,0.0000,0.0000,0.0000,0.1250,0.3125,1.0000,0.00000000000000,0.00000000000000,0.00000000000000,0.00000000000000
1722925434.78,0,0,0,0,0.0000,0.0000,0.0000,1.5000,0.0000,3.1875,0.00000000000000,0.00000000000000,0.00000000000000,0.00000000000000
1722925434.78,0,0,0,0,0.0000,0.0000,0.0000,1.2500,-1.1250,2.6250,0.00000000000000,0.00000000000000,0.00000000000000,0.00000000000000
1722925434.80,0,0,0,0,0.0000,0.0000,0.0000,0.9375,-1.3125,1.0625,0.00000000000000,0.00000000000000,0.00000000000000,0.00000000000000
1722925434.81,0,0,0,0,0.0000,0.0000,0.0000,0.9375,0.2500,-0.1875,0.00000000000000,0.00000000000000,0.00000000000000,0.00000000000000
1722925434.82,0,0,0,0,10.0600,-0.0100,-9.7700,0.6250,1.0625,0.1875,1.00000000000000,0.00054931640625,-0.00024414062500,0.00097656250000
1722925434.83,0,0,0,0,9.8900,0.0000,-9.8800,0.5625,0.7500,1.6875,1.00000000000000,0.00061035156250,-0.00024414062500,0.00115966796875
1722925434.84,0,0,0,0,9.4900,0.1400,-9.9000,1.0000,1.3125,2.6875,1.00000000000000,0.00073242187500,-0.00018310546875,0.00134277343750
1722925434.84,0,0,0,0,9.4400,0.0700,-9.9200,2.1250,2.0000,2.3750,1.00000000000000,0.00091552734375,-0.00006103515625,0.00158691406250
1722925434.85,0,0,0,0,9.6400,0.0400,-9.8800,2.5000,1.5625,1.6875,1.00000000000000,0.00109863281250,0.00000000000000,0.00170898437500
1722925434.87,0,0,0,0,-0.1000,-0.0300,0.0000,1.6250,-0.0625,1.6875,0.70410156250000,0.00628662109375,-0.71008300781250,0.00219726562500
1722925434.88,0,0,0,0,-0.2000,0.0100,0.1400,-0.5625,-2.9375,1.6250,0.70385742187500,0.00616455078125,-0.71032714843750,0.00225830078125
1722925434.89,0,0,0,0,-0.3800,0.0500,0.1300,-0.8750,-2.1875,1.4375,0.70367431640625,0.00598144531250,-0.71051025390625,0.00231933593750
1722925434.90,0,0,0,0,-0.3600,0.0100,0.0300,-0.5000,0.4375,0.6250,0.70361328125000,0.00598144531250,-0.71057128906250,0.00231933593750
1722925434.91,0,0,0,0,-0.1500,0.0700,0.0800,-0.3125,1.0000,0.1875,0.70361328125000,0.00598144531250,-0.71057128906250,0.00231933593750
1722925434.92,0,0,0,0,0.0500,0.0400,0.1700,0.0000,0.4375,-0.0625,0.70355224609375,0.00598144531250,-0.71057128906250,0.00231933593750
1722925434.92,0,0,0,0,0.1500,0.0200,0.1900,0.2500,0.0000,0.1875,0.70349121093750,0.00598144531250,-0.71063232421875,0.00231933593750
1722925434.93,0,0,0,0,0.0600,0.0300,0.1900,0.0625,-0.1875,1.2500,0.70343017578125,0.00585937500000,-0.71069335937500,0.00244140625000
1722925434.95,0,0,0,0,-0.3000,0.0700,0.1800,-0.5000,-0.6875,1.6250,0.70336914062500,0.00579833984375,-0.71081542968750,0.00250244140625
1722925434.96,0,0,0,0,-0.5000,0.0100,0.0200,-0.6250,-0.1250,1.4375,0.70330810546875,0.00567626953125,-0.71087646484375,0.00256347656250
1722925434.97,0,0,0,0,-0.5100,0.0500,0.0900,-1.8750,-0.8125,0.0000,0.70318603515625,0.00555419921875,-0.71099853515625,0.00244140625000
1722925434.98,0,0,0,0,-0.2300,0.0100,0.0500,-1.9375,-0.7500,-1.3750,0.70306396484375,0.00549316406250,-0.71105957031250,0.00225830078125
1722925434.99,0,0,0,0,-0.1100,0.0000,-0.1000,-2.0625,-0.0625,-2.1250,0.70306396484375,0.00549316406250,-0.71112060546875,0.00195312500000
1722925435.00,0,0,0,0,-0.0400,0.0400,-0.0400,-2.6250,-2.7500,-2.3125,0.70281982421875,0.00549316406250,-0.71136474609375,0.00164794921875
1722925435.00,0,0,0,0,-0.0100,0.0500,0.0400,-1.9375,-2.5625,-1.8125,0.70257568359375,0.00549316406250,-0.71154785156250,0.00140380859375
1722925435.01,0,0,0,0,0.2100,0.0100,0.0100,-0.6875,-0.0625,-0.8125,0.70257568359375,0.00549316406250,-0.71160888671875,0.00134277343750
1722925435.03,0,0,0,0,0.1400,0.0100,0.1100,0.2500,0.9375,0.6875,0.70257568359375,0.00543212890625,-0.71160888671875,0.00140380859375
1722925435.04,0,0,0,0,0.0600,0.0300,0.1400,1.0625,1.7500,1.8750,0.70263671875000,0.00543212890625,-0.71154785156250,0.00158691406250
1722925435.05,0,0,0,0,-0.1100,0.0100,0.1000,1.0625,2.5625,2.1875,0.70275878906250,0.00531005859375,-0.71142578125000,0.00177001953125
1722925435.06,0,0,0,0,-0.4200,-0.0500,-0.0100,0.6875,2.2500,2.0625,0.70281982421875,0.00524902343750,-0.71136474609375,0.00195312500000
1722925435.07,0,0,0,0,-0.4300,0.0000,0.1000,-1.0625,-0.2500,1.0625,0.70275878906250,0.00512695312500,-0.71136474609375,0.00195312500000
1722925435.08,0,0,0,0,-0.3400,0.0400,0.0700,-1.0000,-1.2500,0.1250,0.70263671875000,0.00506591796875,-0.71148681640625,0.00189208984375
1722925435.09,0,0,0,0,-0.1200,0.0300,0.0200,-0.3125,-0.7500,0.0000,0.70257568359375,0.00506591796875,-0.71160888671875,0.00189208984375
1722925435.10,0,0,0,0,0.1400,0.0000,0.1100,0.1875,-0.1250,0.6250,0.70251464843750,0.00500488281250,-0.71160888671875,0.00189208984375
1722925435.11,0,0,0,0,0.0700,0.0400,0.2000,0.5625,0.0000,1.8125,0.70251464843750,0.00494384765625,-0.71166992187500,0.00207519531250
1722925435.12,0,0,0,0,0.0200,-0.0100,0.1400,0.8125,0.0000,2.0625,0.70245361328125,0.00488281250000,-0.71173095703125,0.00225830078125
1722925435.13,0,0,0,0,-0.0300,-0.0100,0.0500,0.9375,0.0000,2.4375,0.70239257812500,0.00476074218750,-0.71173095703125,0.00244140625000
1722925435.14,0,0,0,0,-0.2800,0.0100,-0.0200,0.7500,-0.2500,2.6875,0.70239257812500,0.00463867187500,-0.71179199218750,0.00268554687500
1722925435.15,0,0,0,0,-0.3700,0.0500,0.1100,-0.1875,-1.6875,2.1250,0.70220947265625,0.00451660156250,-0.71191406250000,0.00280761718750
1722925435.16,0,0,0,0,-0.3800,0.0700,0.1600,-0.3125,-1.1250,1.3750,0.70214843750000,0.00445556640625,-0.71203613281250,0.00286865234375
1722925435.17,0,0,0,0,-0.1200,0.0300,0.0400,0.0625,0.5000,0.5625,0.70208740234375,0.00439453125000,-0.71209716796875,0.00292968750000
1722925435.18,0,0,0,0,-0.1700,0.0600,0.0000,0.3750,1.0000,0.6875,0.70208740234375,0.00433349609375,-0.71203613281250,0.00292968750000
1722925435.19,0,0,0,0,-0.2200,0.0200,0.0800,0.5625,1.0000,0.4375,0.70214843750000,0.00439453125000,-0.71203613281250,0.00299072265625
1722925435.20,0,0,0,0,-0.1800,-0.0300,0.1600,0.6875,0.5625,-0.1250,0.70214843750000,0.00445556640625,-0.71197509765625,0.00305175781250
1722925435.21,0,0,0,0,-0.1100,-0.0800,0.3100,0.0000,-0.8750,-0.6875,0.70208740234375,0.00445556640625,-0.71203613281250,0.00299072265625
1722925435.22,0,0,0,0,-0.1800,-0.1000,0.3300,-1.0000,-1.3750,-1.1250,0.70208740234375,0.00445556640625,-0.71209716796875,0.00286865234375
1722925435.23,0,0,0,0,-0.2800,-0.0300,0.2900,-2.2500,-0.4375,-1.5000,0.70214843750000,0.00439453125000,-0.71203613281250,0.00268554687500
1722925435.24,0,0,0,0,-0.3100,0.0000,0.1900,-3.0625,0.6250,-2.3125,0.70220947265625,0.00433349609375,-0.71197509765625,0.00231933593750
1722925435.25,0,0,0,0,-0.2500,0.0500,-0.0600,-3.5000,0.0000,-2.7500,0.70220947265625,0.00433349609375,-0.71197509765625,0.00195312500000
1722925435.26,0,0,0,0,-0.1700,0.1500,0.0000,-3.1875,-1.1875,-2.8125,0.70208740234375,0.00433349609375,-0.71203613281250,0.00158691406250
1722925435.27,0,0,0,0,0.0800,0.1300,-0.0200,-1.6875,-0.7500,-2.6250,0.70202636718750,0.00439453125000,-0.71215820312500,0.00128173828125
1722925435.28,0,0,0,0,0.2700,0.1200,0.0200,-0.3125,-0.3125,-1.8125,0.70196533203125,0.00445556640625,-0.71215820312500,0.00115966796875
1722925435.29,0,0,0,0,0.0600,0.0600,0.1300,0.0625,-0.4375,0.0000,0.70196533203125,0.00445556640625,-0.71221923828125,0.00115966796875
1722925435.30,0,0,0,0,-0.1900,0.0000,0.0700,0.1875,0.5000,1.3750,0.70196533203125,0.00439453125000,-0.71221923828125,0.00128173828125
1722925435.31,0,0,0,0,-0.3600,0.0000,0.1400,-0.2500,0.7500,1.2500,0.70196533203125,0.00433349609375,-0.71221923828125,0.00134277343750
1722925435.32,0,0,0,0,-0.3200,0.0300,0.1300,-0.0625,1.6875,0.6875,0.70202636718750,0.00427246093750,-0.71209716796875,0.00140380859375
1722925435.33,0,0,0,0,-0.1700,0.0100,0.0300,0.3125,2.4375,-0.0625,0.70214843750000,0.00427246093750,-0.71197509765625,0.00140380859375
1722925435.34,0,0,0,0,-0.1300,0.0500,0.1200,0.5625,0.9375,-0.6875,0.70220947265625,0.00433349609375,-0.71197509765625,0.00140380859375
1722925435.35,0,0,0,0,-0.0800,0.0800,0.1000,1.1250,0.7500,-0.9375,0.70220947265625,0.00451660156250,-0.71191406250000,0.00140380859375
1722925435.36,0,0,0,0,-0.0700,0.0700,0.0900,1.0000,0.8750,-0.6875,0.70227050781250,0.00457763671875,-0.71191406250000,0.00140380859375
1722925435.37,0,0,0,0,-0.0500,0.0700,0.0900,1.2500,0.1250,-0.1875,0.70227050781250,0.00469970703125,-0.71191406250000,0.00146484375000
1722925435.38,0,0,0,0,-0.0700,0.0300,0.0700,1.6875,0.1875,0.6250,0.70227050781250,0.00476074218750,-0.71191406250000,0.00158691406250
1722925435.39,0,0,0,0,-0.1000,0.0000,0.1100,2.0625,-0.0625,1.3750,0.70227050781250,0.00482177734375,-0.71191406250000,0.00183105468750
1722925435.40,0,0,0,0,-0.3100,0.0200,0.1200,1.7500,-0.4375,1.0625,0.70220947265625,0.00488281250000,-0.71191406250000,0.00201416015625
1722925435.41,0,0,0,0,-0.0600,0.0400,0.2900,1.6875,0.9375,-0.3750,0.70233154296875,0.00494384765625,-0.71185302734375,0.00207519531250
1722925435.42,0,0,0,0,0.0500,-0.0100,0.3300,1.3750,3.1250,-0.7500,0.70257568359375,0.00512695312500,-0.71160888671875,0.00213623046875
1722925435.43,0,0,0,0,-0.1500,-0.0100,0.2100,0.5000,4.3125,0.0000,0.70288085937500,0.00512695312500,-0.71130371093750,0.00213623046875
1722925435.44,0,0,0,0,-0.6300,0.0300,0.0400,0.2500,5.9375,-0.1250,0.70324707031250,0.00512695312500,-0.71093750000000,0.00213623046875
1722925435.45,0,0,0,0,-0.5800,0.1000,0.1500,1.0000,6.7500,-1.7500,0.70361328125000,0.00531005859375,-0.71051025390625,0.00207519531250
1722925435.46,0,0,0,0,-0.1000,-0.0300,0.1000,1.8125,7.1875,-3.6875,0.70404052734375,0.00561523437500,-0.71008300781250,0.00195312500000
1722925435.47,0,0,0,0,0.2900,-0.0500,0.1400,0.9375,6.2500,-2.8750,0.70446777343750,0.00585937500000,-0.70971679687500,0.00183105468750
1722925435.48,0,0,0,0,0.2600,-0.0100,-0.0800,1.6875,6.8125,-0.4375,0.70483398437500,0.00598144531250,-0.70935058593750,0.00195312500000
1722925435.49,0,0,0,0,0.0000,0.0400,-0.1900,1.4375,5.5625,1.3750,0.70520019531250,0.00598144531250,-0.70898437500000,0.00213623046875
1722925435.50,0,0,0,0,-0.4200,0.1100,-0.1300,1.2500,2.5625,1.8750,0.70532226562500,0.00592041015625,-0.70886230468750,0.00231933593750
1722925435.51,0,0,0,0,-0.5500,0.0800,0.1100,0.7500,1.0625,0.6875,0.70538330078125,0.00592041015625,-0.70880126953125,0.00244140625000
1722925435.52,0,0,0,0,-0.2500,-0.0500,0.1600,0.6875,2.0625,-0.8125,0.70550537109375,0.00604248046875,-0.70867919921875,0.00244140625000
1722925435.53,0,0,0,0,0.0400,-0.1000,0.2300,0.1250,3.1875,-1.9375,0.70568847656250,0.00616455078125,-0.70849609375000,0.00231933593750
1722925435.54,0,0,0,0,0.1200,-0.0400,0.2400,-0.6875,3.1875,-1.6875,0.70587158203125,0.00622558593750,-0.70831298828125,0.00213623046875
1722925435.55,0,0,0,0,-0.1000,-0.0200,0.1500,-0.8125,3.1250,-1.1875,0.70605468750000,0.00622558593750,-0.70812988281250,0.00201416015625
1722925435.56,0,0,0,0,-0.2800,0.1000,0.1700,-1.1250,2.0000,-0.8125,0.70611572265625,0.00622558593750,-0.70806884765625,0.00189208984375
1722925435.57,0,0,0,0,-0.2200,0.0600,0.1700,-0.3750,2.0000,-1.0000,0.70623779296875,0.00628662109375,-0.70794677734375,0.00183105468750
1722925435.58,0,0,0,0,-0.0900,0.0600,0.1200,-0.0625,2.0625,-1.0625,0.70642089843750,0.00634765625000,-0.70776367187500,0.00177001953125
1722925435.59,0,0,0,0,0.0200,0.0100,0.0500,0.3125,2.5625,-0.6875,0.70654296875000,0.00640869140625,-0.70764160156250,0.00170898437500
1722925435.60,0,0,0,0,-0.1400,0.0300,0.1700,-0.5625,0.7500,0.0000,0.70660400390625,0.00640869140625,-0.70758056640625,0.00164794921875
1722925435.61,0,0,0,0,-0.4300,0.0800,0.2100,-1.1250,-0.3750,0.0625,0.70666503906250,0.00634765625000,-0.70751953125000,0.00158691406250
1722925435.62,0,0,0,0,-0.5500,0.0500,0.1400,-1.1250,-0.1250,-1.0000,0.70666503906250,0.00634765625000,-0.70751953125000,0.00140380859375
1722925435.63,0,0,0,0,-0.2700,0.0000,0.0600,-1.0000,-0.3750,-2.6250,0.70666503906250,0.00640869140625,-0.70751953125000,0.00122070312500
1722925435.64,0,0,0,0,0.0600,0.0000,0.0900,-0.6250,-0.3750,-3.3125,0.70666503906250,0.00659179687500,-0.70751953125000,0.00097656250000
1722925435.65,0,0,0,0,0.2600,0.0700,0.1000,-0.4375,0.2500,-2.6250,0.70660400390625,0.00677490234375,-0.70758056640625,0.00079345703125
1722925435.66,0,0,0,0,0.2400,0.1200,0.0000,0.1250,1.6250,-0.5000,0.70672607421875,0.00677490234375,-0.70745849609375,0.00079345703125
1722925435.67,0,0,0,0,-0.0100,0.1700,0.0600,0.8125,1.6250,1.5625,0.70678710937500,0.00671386718750,-0.70739746093750,0.00091552734375
1722925435.68,0,0,0,0,-0.2400,0.1300,0.0000,1.5625,1.8125,2.7500,0.70690917968750,0.00665283203125,-0.70727539062500,0.00122070312500
1722925435.69,0,0,0,0,-0.4400,0.0800,-0.0200,1.4375,1.2500,2.6250,0.70697021484375,0.00659179687500,-0.70721435546875,0.00146484375000
1722925435.70,0,0,0,0,-0.4300,-0.0500,0.1300,0.8125,-1.1875,1.1875,0.70690917968750,0.00653076171875,-0.70727539062500,0.00158691406250
1722925435.71,0,0,0,0,-0.2500,-0.1000,0.2100,0.3125,-2.1250,0.0000,0.70672607421875,0.00653076171875,-0.70739746093750,0.00158691406250
1722925435.72,0,0,0,0,-0.1000,-0.0600,0.1800,0.0000,-1.0625,-0.3750,0.70666503906250,0.00653076171875,-0.70751953125000,0.00158691406250
1722925435.73,0,0,0,0,-0.0600,-0.0300,0.1700,-0.4375,0.0000,-0.3750,0.70666503906250,0.00653076171875,-0.70751953125000,0.00158691406250
1722925435.74,0,0,0,0,-0.0500,0.0100,0.1100,-0.5000,0.2500,-0.6875,0.70666503906250,0.00659179687500,-0.70751953125000,0.00152587890625
1722925435.75,0,0,0,0,-0.0500,0.0300,0.1000,0.0000,0.1250,-0.5625,0.70666503906250,0.00665283203125,-0.70751953125000,0.00152587890625
1722925435.76,0,0,0,0,-0.0200,0.0200,0.1400,0.4375,0.0625,-0.3125,0.70672607421875,0.00665283203125,-0.70745849609375,0.00152587890625
1722925435.77,0,0,0,0,-0.0100,-0.0100,0.0900,0.1875,-0.1875,0.0625,0.70672607421875,0.00665283203125,-0.70745849609375,0.00152587890625
1722925435.78,0,0,0,0,-0.1600,0.0100,0.0500,-0.1250,-0.4375,1.0000,0.70672607421875,0.00659179687500,-0.70745849609375,0.00158691406250
1722925435.79,0,0,0,0,-0.2900,0.0600,0.1300,-0.3750,-0.6250,0.7500,0.70666503906250,0.00653076171875,-0.70751953125000,0.00158691406250
1722925435.80,0,0,0,0,-0.2600,0.0000,0.1400,-0.5625,-0.5625,0.0625,0.70666503906250,0.00653076171875,-0.70751953125000,0.00158691406250
1722925435.81,0,0,0,0,-0.2200,0.0200,0.1700,-0.6875,0.0000,-0.5000,0.70666503906250,0.00646972656250,-0.70751953125000,0.00152587890625
1722925435.82,0,0,0,0,-0.0400,0.0400,0.1000,-0.6875,1.5000,-0.5625,0.70678710937500,0.00646972656250,-0.70739746093750,0.00140380859375
1722925435.83,0,0,0,0,-0.0400,0.0400,0.0000,-0.2500,2.0000,-0.2500,0.70690917968750,0.00646972656250,-0.70727539062500,0.00140380859375
1722925435.84,0,0,0,0,-0.1200,0.1000,-0.0100,0.3125,1.5625,0.0000,0.70697021484375,0.00646972656250,-0.70721435546875,0.00140380859375
1722925435.85,0,0,0,0,-0.0800,0.0000,0.0100,1.1250,1.6875,0.0000,0.70709228515625,0.00653076171875,-0.70709228515625,0.00146484375000
1722925435.86,0,0,0,0,-0.2100,-0.0100,0.0900,0.6875,1.1250,0.5000,0.70715332031250,0.00659179687500,-0.70703125000000,0.00152587890625
1722925435.87,0,0,0,0,-0.2500,-0.0100,0.1300,0.4375,1.2500,0.5625,0.70721435546875,0.00653076171875,-0.70697021484375,0.00158691406250
1722925435.88,0,0,0,0,-0.2500,-0.0300,0.0800,0.3125,1.2500,0.0000,0.70733642578125,0.00653076171875,-0.70684814453125,0.00158691406250
1722925435.89,0,0,0,0,-0.2200,0.0000,0.2800,-0.0625,0.1250,-0.5000,0.70733642578125,0.00653076171875,-0.70684814453125,0.00158691406250
1722925435.90,0,0,0,0,-0.1000,-0.0300,0.3200,-0.5625,0.0000,-0.8750,0.70739746093750,0.00659179687500,-0.70678710937500,0.00146484375000
1722925435.91,0,0,0,0,-0.0500,-0.0400,0.2300,-0.8750,0.8125,-1.2500,0.70751953125000,0.00659179687500,-0.70666503906250,0.00134277343750
1722925435.92,0,0,0,0,-0.1300,-0.0200,0.1500,-1.2500,1.1875,-1.0000,0.70764160156250,0.00659179687500,-0.70654296875000,0.00122070312500
1722925435.93,0,0,0,0,-0.3900,0.0300,0.0800,-1.3125,-0.4375,-1.2500,0.70764160156250,0.00659179687500,-0.70654296875000,0.00103759765625
1722925435.94,0,0,0,0,-0.4000,0.0200,0.0600,-0.9375,-1.2500,-2.3125,0.70758056640625,0.00665283203125,-0.70660400390625,0.00085449218750
1722925435.95,0,0,0,0,-0.2300,0.0000,0.0900,-0.3125,-0.9375,-3.1250,0.70751953125000,0.00683593750000,-0.70666503906250,0.00067138671875
1722925435.96,0,0,0,0,0.0300,0.0000,0.0800,-0.3125,0.1875,-3.2500,0.70751953125000,0.00701904296875,-0.70666503906250,0.00042724609375
1722925435.97,0,0,0,0,0.3700,0.0200,0.0900,-1.1250,-0.5625,-2.3125,0.70751953125000,0.00714111328125,-0.70666503906250,0.00024414062500
1722925435.98,0,0,0,0,0.0000,0.0700,0.0700,-2.0000,-2.1250,-0.4375,0.70733642578125,0.00701904296875,-0.70684814453125,0.00012207031250
1722925435.99,0,0,0,0,-0.4400,0.1300,0.0600,-1.5000,-1.1875,0.8125,0.70727539062500,0.00683593750000,-0.70690917968750,0.00006103515625
1722925435.99,0,0,0,0,-0.4400,0.1300,0.0600,-1.5000,-1.1875,0.8125,0.70727539062500,0.00683593750000,-0.70690917968750,0.00006103515625
1722925436.00,0,0,0,0,-0.5000,0.0800,0.0500,-0.1875,0.9375,0.0000,0.70733642578125,0.00683593750000,-0.70684814453125,0.00006103515625
1722925436.01,0,0,0,0,-0.1400,-0.0200,0.1300,0.8750,2.0000,-1.7500,0.70745849609375,0.00701904296875,-0.70672607421875,0.00000000000000
1722925436.02,0,0,0,0,0.2300,-0.0800,0.1600,0.6250,0.9375,-2.4375,0.70751953125000,0.00720214843750,-0.70666503906250,-0.00012207031250
1722925436.03,0,0,0,0,0.2500,-0.0700,0.2100,-0.8750,-1.9375,-1.2500,0.70739746093750,0.00726318359375,-0.70678710937500,-0.00024414062500
1722925436.04,0,0,0,0,-0.2700,0.0700,0.0800,-1.5625,-2.3125,0.0000,0.70721435546875,0.00714111328125,-0.70690917968750,-0.00036621093750
1722925436.05,0,0,0,0,-0.4000,0.0900,0.0400,-1.0000,-1.0000,0.1250,0.70715332031250,0.00708007812500,-0.70697021484375,-0.00042724609375
1722925436.06,0,0,0,0,-0.4100,0.1100,0.0500,0.0000,-0.1875,-0.2500,0.70715332031250,0.00708007812500,-0.70703125000000,-0.00042724609375
1722925436.07,0,0,0,0,-0.2400,0.0900,0.0600,0.3125,0.0625,-1.3125,0.70715332031250,0.00714111328125,-0.70703125000000,-0.00048828125000
1722925436.08,0,0,0,0,0.1900,0.0000,0.0700,0.4375,-0.0625,-1.0625,0.70715332031250,0.00720214843750,-0.70703125000000,-0.00054931640625
1722925436.09,0,0,0,0,0.1500,0.0000,0.1000,0.0625,-1.9375,0.0625,0.70703125000000,0.00720214843750,-0.70715332031250,-0.00054931640625
1722925436.10,0,0,0,0,-0.0100,0.0000,0.1200,0.0000,-1.8750,1.4375,0.70690917968750,0.00714111328125,-0.70727539062500,-0.00048828125000
1722925436.11,0,0,0,0,-0.1600,0.0000,0.1000,0.3750,-1.0000,1.9375,0.70684814453125,0.00701904296875,-0.70733642578125,-0.00036621093750
1722925436.12,0,0,0,0,-0.3100,0.0000,0.1500,0.6250,-0.3750,1.5000,0.70684814453125,0.00695800781250,-0.70733642578125,-0.00024414062500
1722925436.13,0,0,0,0,-0.2100,0.0000,0.0900,0.9375,0.6875,0.5625,0.70690917968750,0.00701904296875,-0.70727539062500,-0.00012207031250
1722925436.14,0,0,0,0,-0.0900,0.0200,0.1700,1.0000,0.6250,0.4375,0.70697021484375,0.00708007812500,-0.70721435546875,-0.00006103515625
1722925436.15,0,0,0,0,-0.0400,0.0200,0.1300,0.9375,1.1875,0.1875,0.70709228515625,0.00714111328125,-0.70709228515625,0.00000000000000
1722925436.16,0,0,0,0,-0.1100,0.0300,0.0100,0.8750,1.2500,0.2500,0.70715332031250,0.00720214843750,-0.70703125000000,0.00006103515625
1722925436.17,0,0,0,0,-0.2600,0.0300,-0.0200,0.5625,0.5000,0.5000,0.70715332031250,0.00720214843750,-0.70703125000000,0.00006103515625
1722925436.18,0,0,0,0,-0.2900,0.0600,0.0000,0.4375,0.0000,0.3750,0.70715332031250,0.00720214843750,-0.70703125000000,0.00006103515625
1722925436.19,0,0,0,0,-0.1100,-0.0100,0.0900,0.5625,-0.5000,0.0000,0.70715332031250,0.00726318359375,-0.70703125000000,0.00012207031250
1722925436.20,0,0,0,0,-0.0600,-0.0300,0.1700,0.3750,-0.9375,-0.1875,0.70709228515625,0.00726318359375,-0.70709228515625,0.00012207031250
1722925436.21,0,0,0,0,-0.0900,-0.0500,0.1700,0.3750,-0.8750,0.0000,0.70709228515625,0.00726318359375,-0.70709228515625,0.00012207031250
1722925436.22,0,0,0,0,-0.1600,-0.0400,0.1100,0.0625,-0.1875,0.0000,0.70709228515625,0.00726318359375,-0.70709228515625,0.00012207031250
1722925436.23,0,0,0,0,-0.3200,0.0000,0.1800,-0.4375,-0.7500,-0.6875,0.70709228515625,0.00732421875000,-0.70709228515625,0.00006103515625
1722925436.24,0,0,0,0,-0.1800,0.0000,0.1900,-0.5625,0.1875,-1.7500,0.70709228515625,0.00738525390625,-0.70709228515625,-0.00006103515625
1722925436.25,0,0,0,0,0.0100,-0.0300,0.0400,-0.3750,1.3125,-2.1875,0.70721435546875,0.00750732421875,-0.70697021484375,-0.00018310546875
1722925436.26,0,0,0,0,0.0600,0.0100,0.0700,-0.8125,0.0625,-1.0625,0.70721435546875,0.00750732421875,-0.70697021484375,-0.00030517578125
1722925436.27,0,0,0,0,-0.0900,-0.0200,0.0400,-0.5625,-0.1875,-0.4375,0.70721435546875,0.00750732421875,-0.70697021484375,-0.00036621093750
1722925436.28,0,0,0,0,-0.2000,0.0200,-0.0100,-0.3750,-0.0625,0.0000,0.70721435546875,0.00750732421875,-0.70697021484375,-0.00036621093750
1722925436.29,0,0,0,0,-0.2800,0.0300,0.0900,-0.2500,-0.7500,-0.1875,0.70715332031250,0.00750732421875,-0.70703125000000,-0.00036621093750
1722925436.30,0,0,0,0,-0.2400,0.0000,0.0800,0.0000,-0.3125,-0.3750,0.70715332031250,0.00750732421875,-0.70697021484375,-0.00036621093750
1722925436.31,0,0,0,0,-0.1900,0.0100,0.1600,0.0000,0.5000,-0.2500,0.70721435546875,0.00750732421875,-0.70697021484375,-0.00036621093750
1722925436.32,0,0,0,0,-0.1100,0.0300,0.1400,0.1250,0.8750,-0.8125,0.70727539062500,0.00756835937500,-0.70690917968750,-0.00042724609375
1722925436.33,0,0,0,0,-0.0500,0.0100,0.0900,-0.0625,0.7500,-1.1250,0.70733642578125,0.00762939453125,-0.70684814453125,-0.00048828125000
1722925436.34,0,0,0,0,-0.0700,-0.0100,0.0400,0.0000,0.0625,-0.8125,0.70733642578125,0.00769042968750,-0.70684814453125,-0.00054931640625
1722925436.35,0,0,0,0,-0.0800,0.0000,0.0700,0.0000,0.3125,-0.5625,0.70733642578125,0.00769042968750,-0.70684814453125,-0.00061035156250
1722925436.36,0,0,0,0,-0.1600,0.0100,0.1000,-0.0625,0.0625,-0.0625,0.70733642578125,0.00769042968750,-0.70684814453125,-0.00061035156250
1722925436.37,0,0,0,0,-0.1600,-0.0100,0.0800,0.0000,1.0625,-0.0625,0.70739746093750,0.00769042968750,-0.70672607421875,-0.00061035156250
1722925436.38,0,0,0,0,-0.0800,0.0500,0.0500,0.5000,2.5625,0.0000,0.70758056640625,0.00769042968750,-0.70660400390625,-0.00061035156250
1722925436.39,0,0,0,0,0.0100,0.0100,0.0300,1.1875,2.6875,0.0000,0.70776367187500,0.00781250000000,-0.70642089843750,-0.00048828125000
1722925436.40,0,0,0,0,0.0000,0.0200,0.1000,1.5625,1.0000,0.4375,0.70782470703125,0.00787353515625,-0.70635986328125,-0.00042724609375
1722925436.41,0,0,0,0,-0.1000,0.0200,0.1900,1.9375,0.0000,0.9375,0.70782470703125,0.00793457031250,-0.70629882812500,-0.00024414062500
1722925436.42,0,0,0,0,-0.2800,0.0000,0.0800,2.1250,0.3125,0.8750,0.70788574218750,0.00805664062500,-0.70629882812500,-0.00006103515625
1722925436.43,0,0,0,0,-0.3300,-0.0700,0.0400,1.8125,-0.0625,0.7500,0.70788574218750,0.00811767578125,-0.70629882812500,0.00012207031250
1722925436.44,0,0,0,0,-0.3000,-0.0300,0.1200,1.2500,-0.1250,-0.3750,0.70788574218750,0.00817871093750,-0.70629882812500,0.00018310546875
1722925436.45,0,0,0,0,-0.2000,-0.0900,0.1200,0.4375,0.5000,-1.0000,0.70788574218750,0.00823974609375,-0.70623779296875,0.00012207031250
1722925436.46,0,0,0,0,-0.0400,0.0000,0.1400,0.0000,0.7500,-1.0625,0.70794677734375,0.00830078125000,-0.70617675781250,0.00006103515625
1722925436.47,0,0,0,0,0.0000,0.0400,0.1300,-0.1875,0.4375,-0.8750,0.70800781250000,0.00836181640625,-0.70617675781250,0.00000000000000
1722925436.48,0,0,0,0,0.0000,0.0700,0.1100,-0.0625,0.6250,-0.3750,0.70806884765625,0.00836181640625,-0.70611572265625,0.00000000000000
1722925436.49,0,0,0,0,-0.0100,0.0500,0.0800,0.0000,0.6875,0.0000,0.70812988281250,0.00836181640625,-0.70605468750000,0.00000000000000
1722925436.50,0,0,0,0,-0.3400,0.0700,0.1400,-0.0625,0.5625,0.6875,0.70819091796875,0.00830078125000,-0.70599365234375,0.00006103515625
1722925436.51,0,0,0,0,-0.3700,0.0200,0.1300,-0.1250,0.3125,0.2500,0.70819091796875,0.00836181640625,-0.70599365234375,0.00006103515625
1722925436.52,0,0,0,0,-0.2800,-0.0200,0.1100,-0.3125,0.3750,-0.7500,0.70819091796875,0.00836181640625,-0.70593261718750,0.00000000000000
1722925436.53,0,0,0,0,-0.0800,-0.0300,0.1100,-0.4375,0.3750,-1.1250,0.70825195312500,0.00848388671875,-0.70593261718750,-0.00012207031250
1722925436.54,0,0,0,0,-0.0400,-0.0100,0.1700,-0.6875,0.3750,-1.0000,0.70825195312500,0.00848388671875,-0.70593261718750,-0.00018310546875
1722925436.55,0,0,0,0,0.0200,-0.0300,0.1000,-0.6250,1.0000,-0.6875,0.70831298828125,0.00848388671875,-0.70581054687500,-0.00030517578125
1722925436.56,0,0,0,0,-0.0100,0.0700,0.1400,-0.5625,1.5000,-0.2500,0.70843505859375,0.00842285156250,-0.70568847656250,-0.00030517578125
1722925436.57,0,0,0,0,0.0000,0.0000,0.0300,0.5625,1.8125,0.1250,0.70855712890625,0.00848388671875,-0.70556640625000,-0.00030517578125
1722925436.58,0,0,0,0,-0.2500,-0.0200,0.1300,0.6875,0.1250,0.5625,0.70855712890625,0.00848388671875,-0.70556640625000,-0.00018310546875
1722925436.59,0,0,0,0,-0.4100,-0.0500,0.2000,0.1875,-0.7500,0.0625,0.70855712890625,0.00848388671875,-0.70562744140625,-0.00018310546875
1722925436.60,0,0,0,0,-0.4200,-0.0800,0.0600,0.0000,1.3750,-0.5625,0.70867919921875,0.00854492187500,-0.70550537109375,-0.00024414062500
1722925436.61,0,0,0,0,-0.2200,0.0000,0.0500,-0.1250,2.1875,-1.4375,0.70880126953125,0.00860595703125,-0.70538330078125,-0.00030517578125
1722925436.62,0,0,0,0,-0.1100,-0.0400,0.0200,0.0625,1.1875,-2.1250,0.70886230468750,0.00872802734375,-0.70526123046875,-0.00048828125000
1722925436.63,0,0,0,0,-0.0600,0.0200,0.0700,0.1250,0.3750,-2.1875,0.70886230468750,0.00885009765625,-0.70526123046875,-0.00061035156250
1722925436.64,0,0,0,0,0.0100,0.0400,0.1100,0.3125,0.2500,-1.8750,0.70886230468750,0.00897216796875,-0.70526123046875,-0.00073242187500
1722925436.65,0,0,0,0,0.0000,0.0000,0.0700,0.2500,0.5625,-1.2500,0.70892333984375,0.00909423828125,-0.70526123046875,-0.00079345703125
1722925436.66,0,0,0,0,-0.2000,0.0100,0.1400,-0.5625,-0.3125,-0.6250,0.70892333984375,0.00909423828125,-0.70526123046875,-0.00085449218750
1722925436.67,0,0,0,0,-0.3100,0.0200,0.1300,-0.6250,-1.0000,-0.7500,0.70886230468750,0.00909423828125,-0.70526123046875,-0.00097656250000
1722925436.68,0,0,0,0,-0.2900,0.0000,0.1000,-0.6875,-1.1250,-1.5625,0.70880126953125,0.00915527343750,-0.70532226562500,-0.00109863281250
1722925436.69,0,0,0,0,-0.0900,-0.0600,0.1500,-0.5000,-0.9375,-2.0000,0.70880126953125,0.00927734375000,-0.70538330078125,-0.00122070312500
1722925436.70,0,0,0,0,-0.0500,-0.0300,0.1300,-0.6875,0.3125,-1.5625,0.70880126953125,0.00933837890625,-0.70532226562500,-0.00134277343750
1722925436.71,0,0,0,0,-0.0400,0.0300,0.0500,-0.1875,0.9375,-1.0000,0.70886230468750,0.00939941406250,-0.70526123046875,-0.00140380859375
1722925436.72,0,0,0,0,-0.0400,0.0200,0.1000,0.3750,0.9375,-1.1250,0.70892333984375,0.00946044921875,-0.70520019531250,-0.00152587890625
1722925436.73,0,0,0,0,-0.0600,0.0000,0.0800,0.5625,0.5625,-0.8750,0.70898437500000,0.00952148437500,-0.70513916015625,-0.00152587890625
1722925436.74,0,0,0,0,-0.1000,-0.0100,0.0500,0.1875,0.5625,-0.5625,0.70904541015625,0.00958251953125,-0.70507812500000,-0.00158691406250
1722925436.75,0,0,0,0,-0.1400,0.0000,0.0900,0.0625,0.5625,-0.3125,0.70910644531250,0.00958251953125,-0.70507812500000,-0.00158691406250
1722925436.76,0,0,0,0,-0.1300,-0.0500,0.0300,0.1875,1.3750,-0.0625,0.70916748046875,0.00958251953125,-0.70495605468750,-0.00158691406250
1722925436.77,0,0,0,0,-0.1700,-0.0300,0.0500,0.0000,0.9375,-0.2500,0.70922851562500,0.00958251953125,-0.70489501953125,-0.00158691406250
1722925436.78,0,0,0,0,-0.1900,0.0100,0.0800,-0.2500,-0.7500,-0.5625,0.70922851562500,0.00958251953125,-0.70495605468750,-0.00158691406250
1722925436.79,0,0,0,0,-0.1100,0.0100,0.1100,-0.3750,-1.1875,-1.0000,0.70910644531250,0.00970458984375,-0.70501708984375,-0.00164794921875
1722925436.80,0,0,0,0,-0.1600,0.0100,0.1000,-0.2500,-0.6250,-0.6875,0.70910644531250,0.00970458984375,-0.70501708984375,-0.00170898437500
1722925436.81,0,0,0,0,-0.2100,0.0200,0.1000,-0.1250,0.0625,-0.2500,0.70910644531250,0.00970458984375,-0.70501708984375,-0.00170898437500
1722925436.82,0,0,0,0,-0.2300,0.0200,0.1100,0.0000,0.5000,-0.3750,0.70910644531250,0.00970458984375,-0.70501708984375,-0.00170898437500
1722925436.83,0,0,0,0,-0.1700,-0.0200,0.1100,0.0000,0.4375,-0.5625,0.70916748046875,0.00976562500000,-0.70501708984375,-0.00177001953125
1722925436.84,0,0,0,0,-0.1800,-0.0300,0.1300,-0.1875,-0.2500,-0.6875,0.70916748046875,0.00982666015625,-0.70495605468750,-0.00177001953125
1722925436.85,0,0,0,0,-0.1200,0.0000,0.1900,-0.6250,-0.6875,-0.9375,0.70916748046875,0.00982666015625,-0.70501708984375,-0.00189208984375
1722925436.86,0,0,0,0,-0.0600,-0.0200,0.0900,-0.5625,0.1250,-0.6875,0.70916748046875,0.00982666015625,-0.70495605468750,-0.00195312500000
1722925436.87,0,0,0,0,0.0000,0.0600,0.0100,-0.8125,0.1250,-0.8125,0.70916748046875,0.00982666015625,-0.70495605468750,-0.00207519531250
1722925436.88,0,0,0,0,-0.0500,0.0400,-0.0200,-0.1250,0.0000,-0.4375,0.70916748046875,0.00982666015625,-0.70495605468750,-0.00207519531250
1722925436.89,0,0,0,0,-0.1600,0.0500,0.0400,0.3125,0.1875,0.0000,0.70916748046875,0.00982666015625,-0.70495605468750,-0.00207519531250
1722925436.90,0,0,0,0,-0.1900,0.0100,0.1000,0.4375,0.5625,0.0000,0.70922851562500,0.00982666015625,-0.70489501953125,-0.00207519531250
1722925436.91,0,0,0,0,-0.2300,-0.0300,0.0400,0.5000,1.6875,0.0000,0.70935058593750,0.00982666015625,-0.70477294921875,-0.00207519531250
1722925436.92,0,0,0,0,-0.1800,-0.0300,0.0700,0.4375,1.8750,-0.1250,0.70947265625000,0.00982666015625,-0.70465087890625,-0.00207519531250
1722925436.93,0,0,0,0,-0.1800,-0.0600,0.1000,-0.1250,0.4375,0.0000,0.70947265625000,0.00982666015625,-0.70465087890625,-0.00207519531250
1722925436.94,0,0,0,0,-0.1700,-0.0500,0.1300,-0.9375,-1.1875,-0.6875,0.70941162109375,0.00982666015625,-0.70471191406250,-0.00219726562500
1722925436.95,0,0,0,0,-0.1100,-0.0200,0.1400,-1.2500,-1.3750,-0.9375,0.70935058593750,0.00976562500000,-0.70477294921875,-0.00231933593750
1722925436.96,0,0,0,0,-0.0600,0.0000,0.1300,-1.1250,-0.8125,-1.0000,0.70935058593750,0.00976562500000,-0.70483398437500,-0.00244140625000
1722925436.97,0,0,0,0,-0.0500,-0.0100,0.0700,-0.6250,0.1250,-0.5625,0.70935058593750,0.00976562500000,-0.70477294921875,-0.00250244140625
1722925436.98,0,0,0,0,-0.0300,0.0100,0.0600,0.0000,0.6250,-0.5000,0.70941162109375,0.00976562500000,-0.70471191406250,-0.00250244140625
1722925436.99,0,0,0,0,-0.1400,0.0400,0.0100,0.0000,0.0625,-0.1250,0.70941162109375,0.00976562500000,-0.70471191406250,-0.00256347656250
1722925437.00,0,0,0,0,-0.2000,0.0300,0.1000,-0.2500,-0.6250,-0.5625,0.70935058593750,0.00982666015625,-0.70477294921875,-0.00256347656250
1722925437.01,0,0,0,0,-0.1900,0.0500,0.1000,-0.6250,-0.8750,-0.5625,0.70935058593750,0.00982666015625,-0.70477294921875,-0.00268554687500
1722925437.02,0,0,0,0,-0.2000,0.0300,0.0900,-0.6250,-1.0625,-0.3750,0.70928955078125,0.00976562500000,-0.70483398437500,-0.00268554687500
1722925437.03,0,0,0,0,-0.1700,0.0000,0.1300,-0.1875,-0.5625,0.0625,0.70922851562500,0.00976562500000,-0.70489501953125,-0.00268554687500
1722925437.04,0,0,0,0,-0.1300,0.0000,0.0900,0.1875,1.1250,0.1250,0.70935058593750,0.00976562500000,-0.70477294921875,-0.00268554687500
1722925437.05,0,0,0,0,-0.0600,0.0000,0.0600,0.6875,2.2500,0.1250,0.70947265625000,0.00982666015625,-0.70465087890625,-0.00268554687500
1722925437.06,0,0,0,0,0.0400,-0.0200,0.0700,1.3750,3.5000,0.1875,0.70971679687500,0.00988769531250,-0.70440673828125,-0.00256347656250
1722925437.07,0,0,0,0,-0.0900,0.0200,0.1100,0.6875,1.0625,0.2500,0.70977783203125,0.00994873046875,-0.70434570312500,-0.00250244140625
1722925437.08,0,0,0,0,-0.2000,0.0000,0.0700,0.5625,-0.3125,0.3125,0.70977783203125,0.01000976562500,-0.70434570312500,-0.00250244140625
1722925437.09,0,0,0,0,-0.3100,0.0100,0.1000,0.0000,-0.1875,0.0625,0.70983886718750,0.01000976562500,-0.70428466796875,-0.00250244140625
1722925437.10,0,0,0,0,-0.2000,-0.0300,0.0200,0.2500,1.1250,-0.0625,0.70989990234375,0.01000976562500,-0.70422363281250,-0.00250244140625
1722925437.11,0,0,0,0,-0.1600,-0.0300,-0.0100,0.0625,2.4375,-0.1875,0.71002197265625,0.01000976562500,-0.70410156250000,-0.00250244140625
1722925437.12,0,0,0,0,-0.1500,-0.0400,0.0400,0.0625,2.0000,-0.1250,0.71020507812500,0.01000976562500,-0.70391845703125,-0.00250244140625
1722925437.13,0,0,0,0,-0.1700,-0.0500,-0.0100,0.4375,1.1875,-0.2500,0.71026611328125,0.01000976562500,-0.70385742187500,-0.00250244140625
1722925437.14,0,0,0,0,-0.1800,-0.0600,0.1600,0.0625,-0.1875,-0.9375,0.71026611328125,0.01007080078125,-0.70385742187500,-0.00256347656250
1722925437.15,0,0,0,0,-0.1400,-0.0500,0.1400,-0.1875,-0.3750,-1.6250,0.71026611328125,0.01013183593750,-0.70385742187500,-0.00262451171875
1722925437.16,0,0,0,0,-0.1300,-0.0200,0.1500,-0.3750,-0.4375,-1.5625,0.71026611328125,0.01025390625000,-0.70385742187500,-0.00274658203125
1722925437.17,0,0,0,0,-0.1400,-0.0300,0.0900,-0.3125,0.0625,-1.3750,0.71026611328125,0.01031494140625,-0.70385742187500,-0.00280761718750
1722925437.18,0,0,0,0,-0.1400,0.0400,0.0400,-0.5625,0.8125,-1.4375,0.71032714843750,0.01037597656250,-0.70379638671875,-0.00292968750000
1722925437.19,0,0,0,0,-0.1200,0.1300,0.0200,-0.8750,1.6250,-1.2500,0.71044921875000,0.01043701171875,-0.70367431640625,-0.00311279296875
1722925437.20,0,0,0,0,-0.0800,0.1300,-0.0800,-0.4375,1.6875,-0.7500,0.71057128906250,0.01043701171875,-0.70355224609375,-0.00311279296875
1722925437.21,0,0,0,0,-0.0700,0.0700,0.0300,0.0000,1.1250,-0.6875,0.71063232421875,0.01049804687500,-0.70349121093750,-0.00317382812500
1722925437.22,0,0,0,0,-0.0600,0.0600,0.1300,0.5000,0.6875,-0.2500,0.71069335937500,0.01049804687500,-0.70343017578125,-0.00317382812500
1722925437.23,0,0,0,0,-0.0700,0.0000,0.1600,1.0625,0.8125,0.0000,0.71075439453125,0.01055908203125,-0.70336914062500,-0.00311279296875
1722925437.24,0,0,0,0,-0.1500,0.0100,0.2600,1.3125,0.3750,0.0625,0.71075439453125,0.01068115234375,-0.70336914062500,-0.00305175781250
1722925437.25,0,0,0,0,-0.1500,0.0300,0.0300,1.3750,1.4375,0.3125,0.71081542968750,0.01074218750000,-0.70330810546875,-0.00292968750000
1722925437.26,0,0,0,0,-0.1800,0.0700,-0.0400,1.0625,1.8750,0.5625,0.71093750000000,0.01080322265625,-0.70318603515625,-0.00280761718750
1722925437.27,0,0,0,0,-0.0900,0.0000,-0.1800,1.6875,3.0000,0.8125,0.71112060546875,0.01080322265625,-0.70294189453125,-0.00268554687500
1722925437.28,0,0,0,0,-0.0700,0.0400,-0.1500,2.6875,3.6875,1.1875,0.71136474609375,0.01092529296875,-0.70275878906250,-0.00244140625000
1722925437.29,0,0,0,0,-0.0800,-0.0900,0.0700,3.7500,3.6250,1.0000,0.71160888671875,0.01110839843750,-0.70251464843750,-0.00213623046875
1722925437.30,0,0,0,0,-0.1600,-0.1000,0.1600,3.8125,3.5625,0.6250,0.71179199218750,0.01129150390625,-0.70227050781250,-0.00183105468750
1722925437.31,0,0,0,0,-0.2300,-0.1100,0.1800,3.1875,3.6875,0.1875,0.71203613281250,0.01147460937500,-0.70202636718750,-0.00164794921875
1722925437.32,0,0,0,0,-0.2400,-0.0700,0.1300,2.7500,4.0000,-0.1250,0.71228027343750,0.01165771484375,-0.70178222656250,-0.00146484375000
1722925437.33,0,0,0,0,-0.3100,-0.0300,-0.1400,2.1250,3.9375,-1.2500,0.71252441406250,0.01190185546875,-0.70153808593750,-0.00140380859375
1722925437.34,0,0,0,0,-0.2600,-0.0600,-0.0400,0.6875,2.5625,-2.2500,0.71270751953125,0.01208496093750,-0.70141601562500,-0.00152587890625
1722925437.35,0,0,0,0,-0.1800,0.1400,0.0000,1.7500,4.1250,-2.0625,0.71295166015625,0.01232910156250,-0.70111083984375,-0.00152587890625
1722925437.36,0,0,0,0,-0.0300,0.0000,0.0900,2.5625,6.4375,-2.1250,0.71331787109375,0.01257324218750,-0.70074462890625,-0.00146484375000
1722925437.37,0,0,0,0,-0.2400,0.1200,0.2900,3.2500,6.8750,-1.9375,0.71374511718750,0.01293945312500,-0.70025634765625,-0.00140380859375
1722925437.38,0,0,0,0,-0.2400,0.1200,0.2900,3.2500,6.8750,-1.9375,0.71374511718750,0.01293945312500,-0.70025634765625,-0.00140380859375
1722925437.38,0,0,0,0,-0.1200,-0.0900,0.1300,4.2500,9.1875,-2.0000,0.71429443359375,0.01330566406250,-0.69970703125000,-0.00128173828125
1722925437.39,0,0,0,0,-0.0900,-0.0200,0.2500,4.1250,11.8125,-3.7500,0.71502685546875,0.01379394531250,-0.69897460937500,-0.00122070312500
1722925437.40,0,0,0,0,-0.1100,-0.1600,-0.0300,3.8125,13.0625,-3.6875,0.71582031250000,0.01428222656250,-0.69812011718750,-0.00122070312500
1722925437.41,0,0,0,0,-0.1500,0.0000,-0.0200,3.6250,15.4375,-3.1250,0.71673583984375,0.01470947265625,-0.69714355468750,-0.00115966796875
1722925437.42,0,0,0,0,-0.2400,0.0900,0.0400,2.5625,15.8750,-3.1250,0.71771240234375,0.01507568359375,-0.69616699218750,-0.00115966796875
1722925437.43,0,0,0,0,-0.0800,0.1300,-0.1400,3.3125,16.6250,-2.7500,0.71875000000000,0.01544189453125,-0.69512939453125,-0.00115966796875
1722925437.44,0,0,0,0,0.1400,0.1500,0.0400,2.8125,15.9375,-3.2500,0.71966552734375,0.01580810546875,-0.69409179687500,-0.00115966796875
1722925437.45,0,0,0,0,0.3200,0.0900,0.1900,3.7500,14.9375,-2.0000,0.72058105468750,0.01617431640625,-0.69317626953125,-0.00103759765625
1722925437.46,0,0,0,0,0.1300,0.0100,0.3000,3.7500,15.1250,-0.7500,0.72149658203125,0.01647949218750,-0.69219970703125,-0.00085449218750
1722925437.47,0,0,0,0,-0.0200,-0.0300,0.2400,3.0000,13.7500,2.0625,0.72235107421875,0.01654052734375,-0.69134521484375,-0.00048828125000
1722925437.48,0,0,0,0,-0.3100,-0.0100,0.5400,2.2500,12.4375,3.6250,0.72308349609375,0.01647949218750,-0.69055175781250,-0.00012207031250
1722925437.49,0,0,0,0,-0.4600,-0.1800,0.5100,1.3750,13.2500,3.0000,0.72387695312500,0.01635742187500,-0.68969726562500,0.00018310546875
1722925437.50,0,0,0,0,-0.6800,-0.0500,0.5400,0.6875,14.9375,2.6250,0.72479248046875,0.01623535156250,-0.68878173828125,0.00042724609375
1722925437.51,0,0,0,0,-0.3500,-0.1900,0.2100,1.1875,18.6875,1.0000,0.72589111328125,0.01623535156250,-0.68756103515625,0.00061035156250
1722925437.52,0,0,0,0,-0.5200,0.0600,0.0400,0.7500,16.4375,0.3750,0.72692871093750,0.01629638671875,-0.68652343750000,0.00067138671875
1722925437.53,0,0,0,0,-0.3300,-0.0600,-0.1300,0.1875,11.3125,-2.7500,0.72760009765625,0.01647949218750,-0.68579101562500,0.00048828125000
1722925437.54,0,0,0,0,0.0700,-0.0700,0.0600,-0.2500,4.6875,-4.8750,0.72790527343750,0.01678466796875,-0.68548583984375,0.00018310546875
1722925437.55,0,0,0,0,0.0800,0.0800,0.1900,-0.6250,6.4375,-3.0625,0.72827148437500,0.01690673828125,-0.68505859375000,-0.00006103515625
1722925437.56,0,0,0,0,0.0600,0.0000,0.0800,-0.6250,8.6250,-0.1875,0.72875976562500,0.01684570312500,-0.68450927734375,-0.00006103515625
1722925437.57,0,0,0,0,-0.2500,0.1300,-0.0800,0.0000,12.8750,0.3125,0.72955322265625,0.01684570312500,-0.68371582031250,-0.00006103515625
1722925437.58,0,0,0,0,-0.2100,-0.0700,-0.5600,2.0000,13.3750,0.1250,0.73034667968750,0.01696777343750,-0.68286132812500,0.00012207031250
1722925437.59,0,0,0,0,-0.2600,-0.0400,-0.2400,3.5625,7.3125,-0.7500,0.73077392578125,0.01727294921875,-0.68237304687500,0.00024414062500
1722925437.60,0,0,0,0,-0.2300,-0.0300,-0.1700,4.0625,3.1250,-3.0000,0.73095703125000,0.01770019531250,-0.68218994140625,0.00030517578125
1722925437.61,0,0,0,0,0.1200,-0.1100,-0.1000,3.2500,1.8125,-2.5000,0.73107910156250,0.01806640625000,-0.68206787109375,0.00036621093750
1722925437.62,0,0,0,0,-0.0200,0.2100,0.3300,2.5625,2.6250,1.5000,0.73126220703125,0.01812744140625,-0.68188476562500,0.00061035156250
1722925437.63,0,0,0,0,-0.1000,0.2000,0.2700,3.9375,10.2500,2.6250,0.73187255859375,0.01824951171875,-0.68121337890625,0.00103759765625
1722925437.64,0,0,0,0,-0.1000,0.0200,-0.1000,5.5000,17.8125,2.3750,0.73291015625000,0.01843261718750,-0.68005371093750,0.00152587890625
1722925437.65,0,0,0,0,-0.1800,0.1000,-0.1500,8.0625,22.6875,1.7500,0.73425292968750,0.01885986328125,-0.67864990234375,0.00219726562500
1722925437.66,0,0,0,0,-0.2800,0.0100,-0.0900,10.4375,23.5625,-0.1875,0.73559570312500,0.01953125000000,-0.67712402343750,0.00280761718750
1722925437.67,0,0,0,0,-0.2900,-0.2200,-0.0500,10.9375,21.5000,-3.1250,0.73687744140625,0.02044677734375,-0.67572021484375,0.00329589843750
1722925437.68,0,0,0,0,-0.2500,-0.1800,0.1200,8.5625,15.0625,-2.0625,0.73773193359375,0.02111816406250,-0.67474365234375,0.00372314453125
1722925437.69,0,0,0,0,-0.1300,-0.0800,0.1700,7.0000,10.6250,-1.0625,0.73834228515625,0.02160644531250,-0.67407226562500,0.00408935546875
1722925437.70,0,0,0,0,0.0500,0.0000,0.5300,5.5000,8.7500,-0.5000,0.73889160156250,0.02197265625000,-0.67346191406250,0.00445556640625
1722925437.71,0,0,0,0,0.0000,0.1200,0.5500,4.9375,7.7500,1.3750,0.73931884765625,0.02221679687500,-0.67297363281250,0.00482177734375
1722925437.72,0,0,0,0,-0.2500,0.0300,0.5900,5.3125,8.6875,2.8750,0.73980712890625,0.02233886718750,-0.67242431640625,0.00537109375000
1722925437.73,0,0,0,0,-0.3800,-0.0100,0.4100,4.0000,8.0000,1.4375,0.74029541015625,0.02252197265625,-0.67187500000000,0.00567626953125
1722925437.74,0,0,0,0,-0.2600,-0.1200,0.4000,4.8750,6.2500,-1.5000,0.74066162109375,0.02294921875000,-0.67144775390625,0.00585937500000
1722925437.75,0,0,0,0,0.0200,-0.1400,0.2500,5.8125,4.5625,-4.0000,0.74090576171875,0.02355957031250,-0.67114257812500,0.00598144531250
1722925437.76,0,0,0,0,0.0600,-0.0300,0.5100,5.8750,4.3750,-6.2500,0.74133300781250,0.02423095703125,-0.67065429687500,0.00598144531250
1722925437.77,0,0,0,0,0.0600,-0.0300,0.5100,5.8750,4.3750,-6.2500,0.74133300781250,0.02423095703125,-0.67065429687500,0.00598144531250
1722925437.77,0,0,0,0,0.3100,0.0100,0.3800,3.0000,4.5000,-6.0000,0.74163818359375,0.02478027343750,-0.67034912109375,0.00573730468750
1722925437.78,0,0,0,0,0.5900,0.2200,0.2400,2.5000,5.6875,-3.6875,0.74194335937500,0.02520751953125,-0.66998291015625,0.00567626953125
1722925437.79,0,0,0,0,0.4900,0.0700,-0.0100,2.0000,7.2500,-1.6250,0.74237060546875,0.02539062500000,-0.66949462890625,0.00567626953125
1722925437.80,0,0,0,0,0.2800,0.0400,-0.0500,0.2500,8.2500,2.3125,0.74285888671875,0.02526855468750,-0.66894531250000,0.00585937500000
1722925437.81,0,0,0,0,0.0100,-0.0800,-0.1200,-2.0625,9.3750,3.5000,0.74340820312500,0.02490234375000,-0.66833496093750,0.00598144531250
1722925437.82,0,0,0,0,-0.4100,0.0000,-0.4300,-4.2500,10.4375,4.7500,0.74401855468750,0.02435302734375,-0.66766357421875,0.00610351562500
1722925437.83,0,0,0,0,-0.2600,-0.0100,-0.4300,-5.3125,8.4375,5.3125,0.74456787109375,0.02368164062500,-0.66711425781250,0.00616455078125
1722925437.84,0,0,0,0,-0.2100,0.1000,-0.1700,-4.7500,5.1250,5.5000,0.74487304687500,0.02307128906250,-0.66680908203125,0.00622558593750
1722925437.85,0,0,0,0,-0.4100,0.1700,0.2300,-4.5000,1.6875,5.6250,0.74493408203125,0.02246093750000,-0.66668701171875,0.00634765625000
1722925437.86,0,0,0,0,-0.1100,-0.3500,-0.0200,-2.5000,2.0000,2.6250,0.74511718750000,0.02209472656250,-0.66656494140625,0.00634765625000
1722925437.87,0,0,0,0,0.1600,-0.1600,0.1600,-2.7500,1.2500,3.3125,0.74517822265625,0.02172851562500,-0.66650390625000,0.00640869140625
1722925437.88,0,0,0,0,0.2800,-0.3100,0.1000,-2.8125,2.6250,5.0000,0.74530029296875,0.02124023437500,-0.66632080078125,0.00659179687500
1722925437.89,0,0,0,0,-0.1700,0.0300,0.0900,-3.2500,8.3750,6.5000,0.74584960937500,0.02062988281250,-0.66577148437500,0.00683593750000
1722925437.90,0,0,0,0,-0.4400,-0.1300,0.0000,-2.8125,14.5625,7.6250,0.74670410156250,0.02001953125000,-0.66485595703125,0.00720214843750
1722925437.91,0,0,0,0,-0.4300,-0.1600,0.2600,-3.5625,16.5625,5.7500,0.74761962890625,0.01940917968750,-0.66375732421875,0.00738525390625
1722925437.92,0,0,0,0,-0.7400,-0.0900,0.3600,-5.5000,16.3750,4.1250,0.74859619140625,0.01879882812500,-0.66271972656250,0.00738525390625
1722925437.93,0,0,0,0,-0.7800,-0.1600,0.6300,-9.0000,15.3125,1.3750,0.74951171875000,0.01812744140625,-0.66168212890625,0.00695800781250
1722925437.94,0,0,0,0,-0.0600,-0.2800,0.3700,-11.0000,11.8125,-1.9375,0.75018310546875,0.01751708984375,-0.66094970703125,0.00622558593750
1722925437.95,0,0,0,0,0.4200,-0.3300,0.2400,-12.1250,3.8125,-1.3750,0.75042724609375,0.01678466796875,-0.66070556640625,0.00543212890625
1722925437.96,0,0,0,0,0.2900,-0.0700,0.2100,-15.3750,-8.5625,1.1875,0.75000000000000,0.01574707031250,-0.66125488281250,0.00463867187500
1722925437.97,0,0,0,0,0.0700,-0.1200,-0.1800,-16.9375,-12.3750,2.5625,0.74926757812500,0.01446533203125,-0.66204833984375,0.00378417968750
1722925437.98,0,0,0,0,-0.2200,0.1700,-0.3200,-14.2500,-5.6250,3.3125,0.74896240234375,0.01336669921875,-0.66241455078125,0.00317382812500
1722925437.99,0,0,0,0,-0.5700,0.3900,-0.2800,-7.1875,3.3125,5.3125,0.74920654296875,0.01257324218750,-0.66223144531250,0.00311279296875
1722925438.00,0,0,0,0,-0.9700,0.4900,-0.0900,-1.2500,12.5000,3.8750,0.74993896484375,0.01226806640625,-0.66143798828125,0.00329589843750
1722925438.01,0,0,0,0,-0.8000,0.2200,0.3600,-2.0625,17.4375,-0.8750,0.75091552734375,0.01214599609375,-0.66027832031250,0.00317382812500
1722925438.02,0,0,0,0,-0.8000,0.2200,0.3600,-2.0625,17.4375,-0.8750,0.75091552734375,0.01214599609375,-0.66027832031250,0.00317382812500
1722925438.02,0,0,0,0,-0.6700,0.2500,0.0900,-2.7500,21.0625,-1.5000,0.75213623046875,0.01208496093750,-0.65887451171875,0.00292968750000
1722925438.03,0,0,0,0,-0.6600,0.3100,-0.3000,-2.2500,24.8750,-1.6875,0.75360107421875,0.01202392578125,-0.65722656250000,0.00268554687500
1722925438.04,0,0,0,0,0.3400,-0.0500,-0.8800,2.5625,28.8125,-6.2500,0.75524902343750,0.01251220703125,-0.65533447265625,0.00244140625000
1722925438.05,0,0,0,0,0.9600,0.1800,-0.6700,5.3125,29.7500,-4.6875,0.75695800781250,0.01312255859375,-0.65338134765625,0.00250244140625
1722925438.06,0,0,0,0,0.7800,0.0200,-0.7300,12.0000,25.8750,3.9375,0.75842285156250,0.01367187500000,-0.65161132812500,0.00347900390625
1722925438.07,0,0,0,0,-0.0800,0.3200,-1.0300,15.1250,22.0625,11.3750,0.75964355468750,0.01403808593750,-0.65020751953125,0.00512695312500
1722925438.08,0,0,0,0,-1.9700,4.7500,-5.0900,24.5000,25.3125,11.5000,0.76104736328125,0.01501464843750,-0.64849853515625,0.00732421875000
1722925438.09,0,0,0,0,-0.7100,1.7700,3.7600,40.4375,-34.5000,24.9375,0.75897216796875,0.01629638671875,-0.65081787109375,0.01116943359375
1722925438.10,0,0,0,0,0.5500,-1.0100,6.4100,27.4375,-79.5625,-7.3750,0.75445556640625,0.01861572265625,-0.65600585937500,0.01214599609375
1722925438.11,0,0,0,0,1.0200,-2.2300,5.4400,-7.4375,-4.0000,-7.9375,0.75421142578125,0.01861572265625,-0.65625000000000,0.01116943359375
1722925438.12,0,0,0,0,-0.5300,-0.0400,1.3500,-21.0000,28.9375,16.0000,0.75592041015625,0.01629638671875,-0.65435791015625,0.01110839843750
1722925438.13,0,0,0,0,-0.6500,0.3500,0.8600,-24.0625,41.3750,28.3125,0.75830078125000,0.01300048828125,-0.65173339843750,0.01165771484375
1722925438.14,0,0,0,0,-0.6000,-0.4300,0.3200,-21.3750,46.7500,12.5000,0.76092529296875,0.01086425781250,-0.64862060546875,0.01129150390625
1722925438.15,0,0,0,0,-0.7100,-0.7000,-0.5600,-5.6250,48.6875,8.6250,0.76367187500000,0.00994873046875,-0.64538574218750,0.01159667968750
1722925438.16,0,0,0,0,-1.2800,0.0700,-0.4800,5.0000,29.8125,9.5625,0.76538085937500,0.00970458984375,-0.64337158203125,0.01257324218750
1722925438.17,0,0,0,0,-3.3100,2.2400,-0.1200,7.7500,8.3750,1.1250,0.76586914062500,0.01013183593750,-0.64282226562500,0.01306152343750
1722925438.18,0,0,0,0,-1.0300,-1.9400,-3.4300,18.6875,4.3125,-24.2500,0.76611328125000,0.01275634765625,-0.64245605468750,0.01251220703125
1722925438.19,0,0,0,0,-1.3100,-0.0700,-1.2700,52.4375,3.4375,-23.7500,0.76623535156250,0.01757812500000,-0.64215087890625,0.01385498046875
1722925438.20,0,0,0,0,-1.4900,-0.6000,-1.3900,49.3125,16.2500,-33.6250,0.76715087890625,0.02276611328125,-0.64093017578125,0.01440429687500
1722925438.21,0,0,0,0,0.3300,-0.7900,1.1400,62.0625,-2.7500,-29.5000,0.76690673828125,0.02856445312500,-0.64093017578125,0.01586914062500
1722925438.22,0,0,0,0,0.2300,-0.0300,1.9000,31.4375,4.1875,-26.0000,0.76708984375000,0.03210449218750,-0.64056396484375,0.01586914062500
1722925438.23,0,0,0,0,0.2600,-0.6200,0.6100,5.6875,27.6250,-22.4375,0.76861572265625,0.03375244140625,-0.63861083984375,0.01477050781250
1722925438.24,0,0,0,0,0.6100,-0.4300,0.1700,-0.8750,41.0000,-8.8125,0.77093505859375,0.03411865234375,-0.63586425781250,0.01428222656250
1722925438.25,0,0,0,0,1.1900,-0.5000,0.5000,-4.5000,58.4375,8.1250,0.77416992187500,0.03326416015625,-0.63189697265625,0.01470947265625
1722925438.26,0,0,0,0,1.6300,-0.6500,-0.3200,-3.1875,76.7500,25.2500,0.77838134765625,0.03155517578125,-0.62677001953125,0.01647949218750
1722925438.27,0,0,0,0,0.3200,-0.3600,-0.8200,-2.0000,65.1875,41.8125,0.78186035156250,0.02905273437500,-0.62243652343750,0.01940917968750
1722925438.28,0,0,0,0,0.3200,-0.3600,-0.8200,-2.0000,65.1875,41.8125,0.78186035156250,0.02905273437500,-0.62243652343750,0.01940917968750
1722925438.28,0,0,0,0,-0.2000,0.0800,-2.4300,-7.1875,33.4375,42.3125,0.78363037109375,0.02618408203125,-0.62030029296875,0.02197265625000
1722925438.29,0,0,0,0,0.0200,2.0800,2.0500,13.0000,-4.0625,42.6250,0.78332519531250,0.02478027343750,-0.62060546875000,0.02557373046875
1722925438.30,0,0,0,0,-0.8400,-0.4200,-0.8800,-12.1250,39.6250,12.8125,0.78546142578125,0.02319335937500,-0.61798095703125,0.02587890625000
1722925438.31,0,0,0,0,-0.6600,-0.6200,-2.5000,8.4375,42.6250,19.9375,0.78765869140625,0.02258300781250,-0.61505126953125,0.02783203125000
1722925438.32,0,0,0,0,0.3300,0.5800,1.8600,39.6250,1.8750,20.5000,0.78765869140625,0.02423095703125,-0.61486816406250,0.03137207031250
1722925438.33,0,0,0,0,0.1600,0.5900,2.7400,26.9375,8.2500,7.0000,0.78802490234375,0.02563476562500,-0.61419677734375,0.03326416015625
1722925438.34,0,0,0,0,-1.1700,-1.2000,-3.3100,-40.5625,51.1250,1.8125,0.79083251953125,0.02264404296875,-0.61083984375000,0.03137207031250
1722925438.35,0,0,0,0,-0.1800,-0.4100,0.0100,-3.7500,8.1250,13.7500,0.79125976562500,0.02160644531250,-0.61029052734375,0.03210449218750
1722925438.36,0,0,0,0,-0.1200,-0.3000,0.1300,-27.8750,26.6875,5.0625,0.79272460937500,0.01934814453125,-0.60852050781250,0.03100585937500
1722925438.37,0,0,0,0,-0.0400,-0.0800,0.6000,-21.5000,40.8750,9.5625,0.79486083984375,0.01721191406250,-0.60577392578125,0.03063964843750
1722925438.38,0,0,0,0,-0.1500,-0.7000,0.4200,-13.4375,40.0625,5.4375,0.79699707031250,0.01586914062500,-0.60302734375000,0.03033447265625
1722925438.39,0,0,0,0,0.0500,-0.6700,0.9900,-9.3125,21.2500,3.5000,0.79809570312500,0.01501464843750,-0.60156250000000,0.03015136718750
1722925438.40,0,0,0,0,-0.3300,-0.2200,1.2000,-8.7500,10.5625,4.7500,0.79864501953125,0.01409912109375,-0.60083007812500,0.03002929687500
1722925438.41,0,0,0,0,-0.4900,-0.1300,0.8000,-19.0625,13.3125,1.2500,0.79937744140625,0.01263427734375,-0.59997558593750,0.02911376953125
1722925438.42,0,0,0,0,-0.6300,-0.6400,-0.4400,-26.7500,29.4375,-4.6875,0.80096435546875,0.01098632812500,-0.59796142578125,0.02740478515625
1722925438.43,0,0,0,0,-1.2100,-0.6100,-0.3400,-10.3125,42.4375,-8.3125,0.80322265625000,0.01055908203125,-0.59497070312500,0.02636718750000
1722925438.44,0,0,0,0,-0.9400,-0.5200,0.5700,30.7500,46.0000,-19.0000,0.80560302734375,0.01361083984375,-0.59167480468750,0.02667236328125
1722925438.45,0,0,0,0,-0.5200,-0.0500,1.1000,44.5000,42.3125,-34.5000,0.80780029296875,0.01843261718750,-0.58856201171875,0.02661132812500
1722925438.46,0,0,0,0,0.7200,-0.8400,0.9300,16.0625,43.8750,-33.2500,0.81011962890625,0.02117919921875,-0.58532714843750,0.02514648437500
1722925438.47,0,0,0,0,-0.9900,-0.3700,-0.7900,-16.1250,74.6875,-12.6875,0.81396484375000,0.02050781250000,-0.58007812500000,0.02355957031250
1722925438.48,0,0,0,0,-1.8300,0.5300,-0.5300,-5.7500,93.5000,-4.8750,0.81872558593750,0.02014160156250,-0.57336425781250,0.02307128906250
1722925438.49,0,0,0,0,-0.7600,0.8900,0.3800,31.1250,94.7500,-11.6250,0.82336425781250,0.02276611328125,-0.56652832031250,0.02398681640625
1722925438.50,0,0,0,0,0.4600,0.2700,-0.0500,44.8125,93.8125,-8.0000,0.82794189453125,0.02612304687500,-0.55963134765625,0.02581787109375
1722925438.51,0,0,0,0,1.0400,0.1900,0.0700,46.4375,81.9375,-5.8750,0.83178710937500,0.02960205078125,-0.55358886718750,0.02783203125000
1722925438.52,0,0,0,0,0.8700,0.4400,0.2600,38.1875,60.6250,-0.0625,0.83465576171875,0.03222656250000,-0.54907226562500,0.02984619140625
1722925438.53,0,0,0,0,-0.8300,0.7100,-0.0700,24.8750,45.8125,5.1250,0.83673095703125,0.03369140625000,-0.54565429687500,0.03155517578125
1722925438.54,0,0,0,0,-0.8300,0.7100,-0.0700,24.8750,45.8125,5.1250,0.83673095703125,0.03369140625000,-0.54565429687500,0.03155517578125
1722925438.54,0,0,0,0,-1.1100,0.7200,0.6200,23.6250,40.8125,5.3125,0.83862304687500,0.03503417968750,-0.54260253906250,0.03314208984375
1722925438.55,0,0,0,0,-1.3800,0.4100,0.8000,3.1250,49.0000,-8.0625,0.84094238281250,0.03552246093750,-0.53900146484375,0.03289794921875
1722925438.56,0,0,0,0,-1.6100,0.1000,1.2000,-30.8750,60.1250,-24.8125,0.84393310546875,0.03424072265625,-0.53454589843750,0.02978515625000
1722925438.57,0,0,0,0,-0.8200,-2.5600,-1.4100,-91.8125,62.9375,-25.2500,0.84716796875000,0.02850341796875,-0.53002929687500,0.02380371093750
1722925438.58,0,0,0,0,-1.4400,-0.2200,-3.9000,-115.1875,62.2500,-24.0000,0.85034179687500,0.02093505859375,-0.52557373046875,0.01690673828125
1722925438.59,0,0,0,0,-0.9900,-1.6900,-0.0600,-66.8125,91.5000,-14.1250,0.85461425781250,0.01647949218750,-0.51885986328125,0.01293945312500
1722925438.60,0,0,0,0,0.1200,-0.1600,1.0900,-69.0625,53.1250,3.9375,0.85711669921875,0.01110839843750,-0.51495361328125,0.01019287109375
1722925438.61,0,0,0,0,-0.8400,0.3800,1.4600,-73.2500,6.5625,6.6250,0.85742187500000,0.00531005859375,-0.51446533203125,0.00738525390625
1722925438.62,0,0,0,0,-1.7000,1.4700,1.2100,-85.1250,-2.1875,-10.1250,0.85736083984375,-0.00061035156250,-0.51470947265625,0.00280761718750
1722925438.63,0,0,0,0,-2.7900,0.5300,-0.8300,-98.8750,20.2500,-52.8125,0.85827636718750,-0.00561523437500,-0.51318359375000,-0.00555419921875
1722925438.64,0,0,0,0,0.0600,-1.7000,-4.0600,-85.0625,28.2500,-106.6250,0.85937500000000,-0.00720214843750,-0.51098632812500,-0.01739501953125
1722925438.65,0,0,0,0,-0.5200,-0.7900,-1.7400,-4.8125,48.8750,-107.1250,0.86132812500000,-0.00274658203125,-0.50738525390625,-0.02563476562500
1722925438.66,0,0,0,0,1.7000,-1.0100,-0.1900,75.5625,65.3125,-125.3750,0.86389160156250,0.00866699218750,-0.50262451171875,-0.03173828125000
1722925438.67,0,0,0,0,4.6100,-1.9100,1.5000,85.8750,41.0625,-105.1875,0.86529541015625,0.01983642578125,-0.49963378906250,-0.03582763671875
1722925438.68,0,0,0,0,1.8600,-0.9200,0.3600,51.0625,38.5000,-38.5000,0.86676025390625,0.02551269531250,-0.49676513671875,-0.03643798828125
1722925438.69,0,0,0,0,0.2500,0.4000,0.4500,26.6875,23.0000,-9.9375,0.86761474609375,0.02801513671875,-0.49511718750000,-0.03601074218750
1722925438.70,0,0,0,0,-0.3800,0.1800,-0.7500,6.6250,25.7500,6.8125,0.86877441406250,0.02832031250000,-0.49316406250000,-0.03509521484375
1722925438.71,0,0,0,0,-0.5600,0.1500,-0.7400,27.0000,51.5000,11.1250,0.87091064453125,0.03002929687500,-0.48937988281250,-0.03295898437500
1722925438.72,0,0,0,0,-0.4200,-0.1500,-0.1600,42.8750,58.0000,11.5000,0.87329101562500,0.03295898437500,-0.48510742187500,-0.03009033203125
1722925438.73,0,0,0,0,-0.3300,0.0400,1.5000,50.3125,58.7500,6.8750,0.87567138671875,0.03662109375000,-0.48077392578125,-0.02728271484375
1722925438.74,0,0,0,0,-0.9100,-0.0500,-0.9900,42.2500,73.8750,-1.2500,0.87860107421875,0.04010009765625,-0.47521972656250,-0.02539062500000
1722925438.75,0,0,0,0,-0.0300,0.5000,-0.5400,20.0625,60.6250,-1.0625,0.88104248046875,0.04180908203125,-0.47058105468750,-0.02441406250000
1722925438.76,0,0,0,0,0.0400,0.5300,-0.8400,17.7500,52.5625,-2.9375,0.88311767578125,0.04339599609375,-0.46655273437500,-0.02374267578125
1722925438.77,0,0,0,0,0.1900,0.4200,-0.1200,20.1875,47.0625,-4.2500,0.88494873046875,0.04522705078125,-0.46295166015625,-0.02307128906250
1722925438.78,0,0,0,0,0.3700,0.4800,-0.1000,14.0000,56.2500,-1.8125,0.88714599609375,0.04644775390625,-0.45861816406250,-0.02239990234375
1722925438.79,0,0,0,0,0.4600,0.1700,-0.2900,11.3125,80.4375,-4.8750,0.89025878906250,0.04766845703125,-0.45239257812500,-0.02197265625000
1722925438.80,0,0,0,0,0.4600,0.1700,-0.2900,11.3125,80.4375,-4.8750,0.89025878906250,0.04766845703125,-0.45239257812500,-0.02197265625000
1722925438.80,0,0,0,0,-0.4900,0.3300,1.2400,7.8750,104.8750,-4.5000,0.89434814453125,0.04870605468750,-0.44421386718750,-0.02160644531250
1722925438.81,0,0,0,0,-0.2400,-0.5100,-1.2700,-0.5625,143.3125,4.5000,0.89984130859375,0.04870605468750,-0.43304443359375,-0.02062988281250
1722925438.82,0,0,0,0,-0.5300,-1.1500,0.0800,9.6875,163.1875,9.5000,0.90588378906250,0.04937744140625,-0.42022705078125,-0.01885986328125
1722925438.83,0,0,0,0,-1.1400,-0.8900,-0.1400,9.1875,132.0625,1.6875,0.91064453125000,0.05029296875000,-0.40979003906250,-0.01776123046875
1722925438.84,0,0,0,0,-5.8000,0.1500,1.1700,-7.1875,102.8125,2.5000,0.91430664062500,0.04974365234375,-0.40161132812500,-0.01739501953125
1722925438.85,0,0,0,0,-2.5100,1.8500,0.4900,-39.5000,126.1250,13.4375,0.91882324218750,0.04632568359375,-0.39147949218750,-0.01715087890625
1722925438.86,0,0,0,0,-0.9000,-1.0100,-0.9300,-68.0625,155.3125,-2.5625,0.92431640625000,0.04119873046875,-0.37890625000000,-0.01904296875000
1722925438.87,0,0,0,0,1.5800,-0.3500,-0.1600,-54.9375,164.5625,-15.6875,0.92980957031250,0.03753662109375,-0.36541748046875,-0.02154541015625
1722925438.88,0,0,0,0,0.7500,-0.6300,0.3300,-51.1875,152.4375,-10.3750,0.93475341796875,0.03399658203125,-0.35290527343750,-0.02349853515625
1722925438.89,0,0,0,0,-1.2200,0.1800,-0.1400,-70.3750,145.5625,4.8750,0.93933105468750,0.02838134765625,-0.34082031250000,-0.02484130859375
1722925438.90,0,0,0,0,-1.1400,0.1800,-0.3300,-78.8125,156.7500,4.1250,0.94409179687500,0.02215576171875,-0.32781982421875,-0.02642822265625
1722925438.91,0,0,0,0,-0.2600,-1.2200,1.1500,-29.7500,171.3125,-18.3750,0.94891357421875,0.02056884765625,-0.31353759765625,-0.02850341796875
1722925438.92,0,0,0,0,-0.1100,-0.8300,1.2200,-2.4375,171.6875,-19.6875,0.95349121093750,0.02136230468750,-0.29925537109375,-0.02984619140625
1722925438.93,0,0,0,0,-0.7800,-0.8900,0.4300,3.7500,147.7500,-18.3125,0.95721435546875,0.02252197265625,-0.28686523437500,-0.03100585937500
1722925438.94,0,0,0,0,0.0000,-0.6600,0.4400,-2.3125,122.9375,-28.7500,0.96014404296875,0.02337646484375,-0.27655029296875,-0.03320312500000
1722925438.95,0,0,0,0,0.2200,0.0000,-0.3300,-14.0625,100.6875,-31.1875,0.96246337890625,0.02319335937500,-0.26800537109375,-0.03594970703125
1722925438.96,0,0,0,0,0.2000,0.2800,0.0300,-34.1875,74.6875,-34.3125,0.96417236328125,0.02136230468750,-0.26153564453125,-0.03948974609375
1722925438.97,0,0,0,0,-1.2700,0.9500,-0.9900,-41.2500,43.8750,-38.9375,0.96508789062500,0.01892089843750,-0.25756835937500,-0.04364013671875
1722925438.98,0,0,0,0,-2.0700,0.2500,-0.3300,-26.8750,4.6875,-67.1250,0.96496582031250,0.01818847656250,-0.25695800781250,-0.04986572265625
1722925438.99,0,0,0,0,-1.1300,-0.4100,0.5600,-13.2500,-34.5625,-107.0625,0.96368408203125,0.01934814453125,-0.25964355468750,-0.05926513671875
1722925439.00,0,0,0,0,-0.7000,-0.7900,0.1600,17.5000,-64.7500,-121.5000,0.96148681640625,0.02319335937500,-0.26495361328125,-0.06915283203125
1722925439.01,0,0,0,0,0.1000,-0.0500,1.8800,66.6250,-26.9375,-128.8750,0.95989990234375,0.03161621093750,-0.26727294921875,-0.07849121093750
1722925439.02,0,0,0,0,-0.3600,-0.7800,0.3600,62.4375,15.3750,-120.0625,0.95916748046875,0.03973388671875,-0.26605224609375,-0.08703613281250
1722925439.03,0,0,0,0,-0.7000,-1.3700,-0.4500,16.1875,16.1875,-105.0625,0.95867919921875,0.04364013671875,-0.26446533203125,-0.09539794921875
1722925439.04,0,0,0,0,0.0000,-0.5800,1.1700,-12.3125,-0.0625,-77.9375,0.95806884765625,0.04437255859375,-0.26403808593750,-0.10217285156250
1722925439.05,0,0,0,0,-0.4200,-1.4400,0.1600,-26.1250,6.0625,-38.1250,0.95794677734375,0.04315185546875,-0.26312255859375,-0.10595703125000
1722925439.06,0,0,0,0,-0.4200,-1.4400,0.1600,-26.1250,6.0625,-38.1250,0.95794677734375,0.04315185546875,-0.26312255859375,-0.10595703125000
1722925439.06,0,0,0,0,0.0800,-1.0200,-0.1500,-47.1875,5.1875,-22.0000,0.95806884765625,0.03973388671875,-0.26214599609375,-0.10882568359375
1722925439.07,0,0,0,0,-0.4100,-0.4400,0.1100,-55.5625,1.3750,-14.8750,0.95812988281250,0.03540039062500,-0.26147460937500,-0.11138916015625
1722925439.08,0,0,0,0,0.6800,-0.8400,0.0800,-56.8750,1.9375,-20.3125,0.95812988281250,0.03112792968750,-0.26068115234375,-0.11431884765625
1722925439.09,0,0,0,0,-0.1400,-0.5600,0.2200,-66.5000,-4.0000,-27.6875,0.95794677734375,0.02618408203125,-0.26025390625000,-0.11816406250000
1722925439.10,0,0,0,0,-1.1000,0.1900,-0.1200,-65.1250,7.6250,-22.3125,0.95800781250000,0.02130126953125,-0.25885009765625,-0.12152099609375
1722925439.11,0,0,0,0,-1.2500,0.7400,-0.4900,-57.2500,50.4375,-10.0625,0.95910644531250,0.01727294921875,-0.25402832031250,-0.12353515625000
1722925439.12,0,0,0,0,-1.2600,-0.0400,-0.2200,-56.8750,103.6875,-6.4375,0.96136474609375,0.01373291015625,-0.24468994140625,-0.12518310546875
1722925439.13,0,0,0,0,-1.3900,-0.6900,-0.6800,-54.3125,138.9375,0.2500,0.96435546875000,0.01068115234375,-0.23242187500000,-0.12615966796875
1722925439.14,0,0,0,0,-0.7700,0.1000,-0.2500,-44.1875,140.1875,4.8750,0.96722412109375,0.00842285156250,-0.22009277343750,-0.12652587890625
1722925439.15,0,0,0,0,0.2700,-0.3700,-0.4200,-41.2500,138.9375,6.6875,0.96990966796875,0.00628662109375,-0.20788574218750,-0.12658691406250
1722925439.16,0,0,0,0,1.4500,-0.8900,0.4100,-42.0625,143.5000,10.8750,0.97259521484375,0.00415039062500,-0.19525146484375,-0.12634277343750
1722925439.17,0,0,0,0,0.8800,-0.4400,-1.1400,-36.6875,175.1250,34.2500,0.97583007812500,0.00231933593750,-0.17999267578125,-0.12402343750000
1722925439.18,0,0,0,0,-0.3400,-1.0200,0.7800,-40.7500,252.8125,40.1250,0.97998046875000,0.00097656250000,-0.15795898437500,-0.12115478515625
1722925439.19,0,0,0,0,1.4300,-1.6000,5.6400,-38.7500,246.8125,17.5625,0.98333740234375,0.00000000000000,-0.13641357421875,-0.12011718750000
1722925439.20,0,0,0,0,0.0800,-0.6800,1.9300,-22.2500,71.6875,8.5000,0.98425292968750,-0.00128173828125,-0.13000488281250,-0.11962890625000
1722925439.21,0,0,0,0,-0.2900,-0.2500,-2.0600,-11.9375,-81.1250,-9.9375,0.98321533203125,-0.00305175781250,-0.13684082031250,-0.12060546875000
1722925439.22,0,0,0,0,-0.0100,-0.1900,-0.7200,-21.0000,-80.1875,-26.5625,0.98193359375000,-0.00537109375000,-0.14349365234375,-0.12310791015625
1722925439.23,0,0,0,0,-1.2300,0.1000,-1.6300,-32.1875,-1.5625,-25.6250,0.98162841796875,-0.00787353515625,-0.14331054687500,-0.12573242187500
1722925439.24,0,0,0,0,0.1600,-0.2000,-0.6800,-15.1875,117.1875,-18.3125,0.98284912109375,-0.00769042968750,-0.13305664062500,-0.12756347656250
1722925439.25,0,0,0,0,-0.8100,-0.7000,-0.5400,-25.1250,183.6875,-1.2500,0.98480224609375,-0.00775146484375,-0.11700439453125,-0.12805175781250
1722925439.26,0,0,0,0,-0.6500,-0.6600,0.2900,-29.3125,209.8750,3.6250,0.98681640625000,-0.00799560546875,-0.09863281250000,-0.12817382812500
1722925439.27,0,0,0,0,0.2200,0.0000,2.9600,-21.0625,201.6875,1.8125,0.98840332031250,-0.00756835937500,-0.08099365234375,-0.12829589843750
1722925439.28,0,0,0,0,-1.8800,-0.7900,0.1200,-35.9375,132.3125,13.6250,0.98937988281250,-0.00933837890625,-0.06915283203125,-0.12744140625000
1722925439.29,0,0,0,0,-0.2000,-0.7100,-0.0300,0.4375,-0.5000,-2.1250,0.98937988281250,-0.00933837890625,-0.06915283203125,-0.12762451171875
1722925439.30,0,0,0,0,0.4600,-0.1600,-1.0100,21.1250,-87.5625,-13.5625,0.98864746093750,-0.00842285156250,-0.07696533203125,-0.12860107421875
1722925439.31,0,0,0,0,0.8400,-0.2700,-0.5200,19.7500,-40.0000,-5.0000,0.98834228515625,-0.00714111328125,-0.08062744140625,-0.12890625000000
1722925439.32,0,0,0,0,0.8400,-0.2700,-0.5200,19.7500,-40.0000,-5.0000,0.98834228515625,-0.00714111328125,-0.08062744140625,-0.12890625000000
1722925439.32,0,0,0,0,-0.5000,-0.2700,-0.1700,-10.6875,30.1250,12.9375,0.98870849609375,-0.00781250000000,-0.07788085937500,-0.12786865234375
1722925439.33,0,0,0,0,-0.6100,-0.5800,0.0100,-17.4375,36.1875,22.1875,0.98919677734375,-0.00909423828125,-0.07452392578125,-0.12609863281250
1722925439.34,0,0,0,0,-0.2900,-0.7600,-0.1200,7.4375,-15.3750,3.9375,0.98913574218750,-0.00866699218750,-0.07592773437500,-0.12567138671875
1722925439.35,0,0,0,0,0.2400,-0.3400,-0.0500,22.0625,-46.6875,-11.8125,0.98870849609375,-0.00720214843750,-0.08020019531250,-0.12652587890625
1722925439.36,0,0,0,0,-0.0800,-0.1300,-0.5700,13.3125,-39.8125,-8.2500,0.98834228515625,-0.00646972656250,-0.08374023437500,-0.12713623046875
1722925439.37,0,0,0,0,-0.0400,-0.3900,-0.8900,6.4375,-16.7500,-4.2500,0.98815917968750,-0.00604248046875,-0.08526611328125,-0.12744140625000
1722925439.38,0,0,0,0,0.0200,-0.4500,0.3000,-3.8750,23.1250,0.3750,0.98834228515625,-0.00616455078125,-0.08319091796875,-0.12744140625000
1722925439.39,0,0,0,0,-0.7200,-0.2700,0.0000,-18.6875,44.5000,9.2500,0.98870849609375,-0.00738525390625,-0.07916259765625,-0.12683105468750
1722925439.41,0,0,0,0,-0.2700,-0.4800,-0.2100,-9.6250,22.3125,6.1875,0.98895263671875,-0.00799560546875,-0.07708740234375,-0.12634277343750
1722925439.42,0,0,0,0,0.0400,-0.2900,-0.3400,5.3750,-13.8125,-1.1875,0.98883056640625,-0.00769042968750,-0.07836914062500,-0.12640380859375
1722925439.42,0,0,0,0,-0.1100,-0.3800,-0.2700,6.5625,-13.4375,-2.4375,0.98870849609375,-0.00726318359375,-0.07958984375000,-0.12658691406250
1722925439.43,0,0,0,0,-0.2700,-0.4500,-0.1900,0.4375,-1.0000,-0.4375,0.98870849609375,-0.00732421875000,-0.07965087890625,-0.12658691406250
1722925439.44,0,0,0,0,0.0200,0.0500,-0.2600,0.6250,-1.6250,-0.5625,0.98919677734375,-0.02569580078125,-0.07159423828125,-0.12512207031250
1722925439.45,0,0,0,0,0.0000,0.0100,-0.2700,4.1875,-8.7500,-3.1875,0.98907470703125,-0.02569580078125,-0.07354736328125,-0.12536621093750
1722925439.46,0,0,0,0,-0.0800,0.0000,-0.2400,0.5000,-0.9375,-0.7500,0.98919677734375,-0.02569580078125,-0.07171630859375,-0.12536621093750
1722925439.47,0,0,0,0,-0.0600,-0.0100,-0.2400,-1.9375,4.1875,0.8125,0.98925781250000,-0.02636718750000,-0.07037353515625,-0.12530517578125
1722925439.48,0,0,0,0,-0.0700,0.0000,-0.2200,-2.9375,6.3750,2.6875,0.98937988281250,-0.02679443359375,-0.06866455078125,-0.12506103515625
1722925439.50,0,0,0,0,-0.0800,-0.0200,-0.1900,-2.6250,5.3125,2.6250,0.98956298828125,-0.02795410156250,-0.06616210937500,-0.12475585937500
1722925439.50,0,0,0,0,-0.0100,0.0200,-0.2200,-0.6250,1.3750,0.5625,0.98956298828125,-0.02752685546875,-0.06677246093750,-0.12475585937500
1722925439.51,0,0,0,0,-0.0400,-0.0100,-0.1800,0.4375,-1.2500,-0.3750,0.98962402343750,-0.02825927734375,-0.06573486328125,-0.12463378906250
1722925439.52,0,0,0,0,-0.0100,0.0200,-0.2500,1.4375,-3.2500,-1.1875,0.98956298828125,-0.02795410156250,-0.06652832031250,-0.12475585937500
1722925439.53,0,0,0,0,-0.0500,-0.0100,-0.2400,0.9375,-2.1875,-0.6250,0.98956298828125,-0.02789306640625,-0.06671142578125,-0.12481689453125
1722925439.54,0,0,0,0,0.0400,-0.0100,-0.2700,1.3750,-3.0000,-1.3125,0.98950195312500,-0.02777099609375,-0.06695556640625,-0.12493896484375
1722925439.55,0,0,0,0,-0.0700,0.0100,-0.1600,0.0000,0.0625,-0.6250,0.98950195312500,-0.02783203125000,-0.06695556640625,-0.12500000000000
1722925439.56,0,0,0,0,-0.0200,0.0300,-0.2000,0.5625,-1.0625,-1.4375,0.98950195312500,-0.02777099609375,-0.06707763671875,-0.12512207031250
1722925439.58,0,0,0,0,0.0200,-0.0200,-0.2500,1.9375,-4.0000,-2.1250,0.98944091796875,-0.02764892578125,-0.06744384765625,-0.12524414062500
1722925439.59,0,0,0,0,0.2700,-0.3500,-0.3300,1.3750,-2.7500,-2.3750,0.98937988281250,-0.02764892578125,-0.06774902343750,-0.12542724609375
1722925439.59,0,0,0,0,0.2400,-0.5200,-0.2500,-1.3125,1.9375,-8.3125,0.98931884765625,-0.02770996093750,-0.06756591796875,-0.12615966796875
1722925439.60,0,0,0,0,-0.0400,0.2100,-0.1600,-2.9375,4.1875,-21.7500,0.98907470703125,-0.02777099609375,-0.06719970703125,-0.12811279296875
1722925439.61,0,0,0,0,-0.0300,0.4800,-0.1600,0.0625,-3.0000,-32.3125,0.98870849609375,-0.02764892578125,-0.06756591796875,-0.13085937500000
1722925439.62,0,0,0,0,-0.0300,0.4800,-0.1600,0.0625,-3.0000,-32.3125,0.98870849609375,-0.02764892578125,-0.06756591796875,-0.13085937500000
1722925439.62,0,0,0,0,-0.5300,0.5900,-0.1600,3.3750,-10.8750,-30.5625,0.98828125000000,-0.02728271484375,-0.06860351562500,-0.13348388671875
1722925439.63,0,0,0,0,0.1000,0.0500,-0.3600,4.2500,-11.5000,-17.5625,0.98803710937500,-0.02697753906250,-0.06970214843750,-0.13494873046875
1722925439.65,0,0,0,0,-0.2200,0.0200,-0.1400,1.6250,-4.0000,-1.8125,0.98797607421875,-0.02685546875000,-0.07006835937500,-0.13507080078125
1722925439.66,0,0,0,0,0.0000,0.0500,-0.2400,0.3750,-0.0625,3.1875,0.98803710937500,-0.02691650390625,-0.07000732421875,-0.13476562500000
1722925439.67,0,0,0,0,-0.0800,0.0300,-0.1900,0.3125,0.3125,5.0000,0.98809814453125,-0.02697753906250,-0.07000732421875,-0.13433837890625
1722925439.67,0,0,0,0,-0.2300,0.1400,-0.2000,0.8125,0.0000,6.7500,0.98815917968750,-0.02691650390625,-0.07000732421875,-0.13372802734375
1722925439.68,0,0,0,0,0.0100,-0.0300,-0.2500,1.2500,0.3125,13.5000,0.98834228515625,-0.02691650390625,-0.06994628906250,-0.13256835937500
1722925439.69,0,0,0,0,0.0700,-0.0300,-0.2300,0.8750,1.8125,17.6250,0.98852539062500,-0.02691650390625,-0.06976318359375,-0.13104248046875
1722925439.70,0,0,0,0,0.2300,-0.1200,-0.2500,1.5625,-0.0625,13.8750,0.98870849609375,-0.02691650390625,-0.06976318359375,-0.12982177734375
1722925439.71,0,0,0,0,-0.0500,0.0100,-0.2200,1.6875,-2.3750,5.6875,0.98876953125000,-0.02685546875000,-0.07000732421875,-0.12933349609375
1722925439.73,0,0,0,0,-0.0300,0.0200,-0.2200,0.0000,0.6250,0.5000,0.98876953125000,-0.02685546875000,-0.06994628906250,-0.12933349609375
1722925439.74,0,0,0,0,-0.3200,-0.0500,-0.1800,0.0000,-0.6250,0.0000,0.98876953125000,-0.02685546875000,-0.06994628906250,-0.12933349609375
1722925439.75,0,0,0,0,-1.7500,-0.6200,0.2900,0.8750,-0.7500,4.3750,0.98883056640625,-0.02679443359375,-0.07000732421875,-0.12896728515625
1722925439.75,0,0,0,0,-2.2000,-0.8100,0.5100,4.8125,-5.8750,21.1875,0.98901367187500,-0.02661132812500,-0.07055664062500,-0.12707519531250
1722925439.76,0,0,0,0,-2.9300,0.0800,0.6300,14.9375,-30.8125,41.0625,0.98931884765625,-0.02593994140625,-0.07324218750000,-0.12335205078125
1722925439.77,0,0,0,0,-1.0300,0.4800,0.0000,26.8750,-65.0625,61.8125,0.98956298828125,-0.02471923828125,-0.07904052734375,-0.11767578125000
1722925439.78,0,0,0,0,-1.5400,1.0900,-0.4600,36.7500,-79.1875,90.8750,0.98999023437500,-0.02294921875000,-0.08599853515625,-0.10943603515625
1722925439.79,0,0,0,0,0.5500,-1.9900,-0.3600,32.7500,-60.3125,99.5625,0.99053955078125,-0.02148437500000,-0.09130859375000,-0.10046386718750
1722925439.81,0,0,0,0,1.4700,1.2400,-0.4900,17.7500,-23.7500,81.5625,0.99102783203125,-0.02081298828125,-0.09338378906250,-0.09320068359375
1722925439.82,0,0,0,0,2.2600,0.5600,-0.9300,21.1875,-21.2500,80.4375,0.99151611328125,-0.01977539062500,-0.09521484375000,-0.08605957031250
1722925439.83,0,0,0,0,1.3500,2.1800,-0.0900,12.8125,-8.1250,60.4375,0.99194335937500,-0.01928710937500,-0.09588623046875,-0.08068847656250
1722925439.84,0,0,0,0,0.8600,1.6800,-0.5400,6.7500,8.3750,50.5625,0.99237060546875,-0.01904296875000,-0.09509277343750,-0.07629394531250
1722925439.84,0,0,0,0,0.4700,1.0600,-0.2300,1.1875,0.5625,16.8750,0.99249267578125,-0.01910400390625,-0.09503173828125,-0.07476806640625
1722925439.85,0,0,0,0,-0.2600,2.5400,-0.0500,-5.4375,1.6875,-4.5625,0.99243164062500,-0.01953125000000,-0.09484863281250,-0.07525634765625
1722925439.86,0,0,0,0,-2.0700,1.4800,0.4700,-12.3750,4.4375,-31.0625,0.99224853515625,-0.02026367187500,-0.09442138671875,-0.07806396484375
1722925439.87,0,0,0,0,0.1400,2.0700,-0.2700,-13.6875,0.3125,-52.0625,0.99188232421875,-0.02105712890625,-0.09442138671875,-0.08264160156250
1722925439.89,0,0,0,0,3.3300,-0.8000,-1.0100,-16.0625,-7.4375,-59.0625,0.99133300781250,-0.02203369140625,-0.09503173828125,-0.08789062500000
1722925439.90,0,0,0,0,0.6700,-3.3200,-0.5400,-18.0625,0.5000,-83.9375,0.99066162109375,-0.02288818359375,-0.09509277343750,-0.09527587890625
1722925439.90,0,0,0,0,0.6700,-3.3200,-0.5400,-18.0625,0.5000,-83.9375,0.99066162109375,-0.02288818359375,-0.09509277343750,-0.09527587890625
1722925439.91,0,0,0,0,0.6100,-0.8200,-0.3900,-15.1875,6.3125,-77.8750,0.98999023437500,-0.02349853515625,-0.09454345703125,-0.10217285156250
1722925439.92,0,0,0,0,1.0800,0.0100,-0.4700,-10.3125,-0.5000,-60.1250,0.98944091796875,-0.02386474609375,-0.09454345703125,-0.10742187500000
1722925439.92,0,0,0,0,0.4900,-0.3800,-0.1800,-10.6250,0.2500,-59.5625,0.98883056640625,-0.02429199218750,-0.09460449218750,-0.11267089843750
1722925439.93,0,0,0,0,1.6700,1.2200,-0.6200,-6.4375,-11.8125,-52.3125,0.98815917968750,-0.02453613281250,-0.09564208984375,-0.11724853515625
1722925439.94,0,0,0,0,1.1600,2.1800,-0.5200,-3.5000,-18.2500,-43.7500,0.98754882812500,-0.02465820312500,-0.09729003906250,-0.12097167968750
1722925439.96,0,0,0,0,0.3600,0.3800,-0.5000,-0.2500,-12.5000,-9.1875,0.98736572265625,-0.02471923828125,-0.09838867187500,-0.12176513671875
1722925439.97,0,0,0,0,-0.0900,0.5800,-0.2800,3.8125,-3.5000,34.0000,0.98767089843750,-0.02471923828125,-0.09863281250000,-0.11877441406250
1722925439.98,0,0,0,0,-0.5800,-0.0200,-0.0500,6.5000,3.8750,45.1250,0.98822021484375,-0.02447509765625,-0.09826660156250,-0.11486816406250
1722925439.99,0,0,0,0,-0.2800,-0.7400,-0.2900,6.8750,-0.6875,35.1875,0.98858642578125,-0.02423095703125,-0.09832763671875,-0.11175537109375
1722925440.00,0,0,0,0,-0.8900,-0.3900,-0.0900,3.6250,-0.5625,18.1875,0.98876953125000,-0.02404785156250,-0.09838867187500,-0.11016845703125
1722925440.00,0,0,0,0,-0.6200,-0.4800,-0.1300,-2.2500,3.3125,-7.6250,0.98870849609375,-0.02416992187500,-0.09808349609375,-0.11083984375000
1722925440.01,0,0,0,0,0.2800,0.6000,-0.2800,-7.2500,4.0625,-32.3750,0.98840332031250,-0.02447509765625,-0.09777832031250,-0.11370849609375
1722925440.02,0,0,0,0,0.5400,0.9300,-0.3300,-6.7500,0.6875,-35.1250,0.98803710937500,-0.02471923828125,-0.09771728515625,-0.11676025390625
1722925440.04,0,0,0,0,1.0500,0.9800,-0.3800,-2.9375,-1.4375,-19.2500,0.98779296875000,-0.02484130859375,-0.09783935546875,-0.11846923828125
1722925440.05,0,0,0,0,1.3500,1.0100,-0.4800,1.6250,-3.8125,0.5625,0.98779296875000,-0.02471923828125,-0.09820556640625,-0.11840820312500
1722925440.06,0,0,0,0,0.5200,0.8900,-0.3100,5.0625,-5.3125,11.3750,0.98785400390625,-0.02447509765625,-0.09869384765625,-0.11737060546875
1722925440.07,0,0,0,0,0.0000,0.4700,-0.2300,4.4375,-2.3125,12.6875,0.98797607421875,-0.02416992187500,-0.09893798828125,-0.11621093750000
1722925440.08,0,0,0,0,-0.1800,0.2500,-0.1600,3.7500,0.1875,10.6875,0.98809814453125,-0.02398681640625,-0.09893798828125,-0.11523437500000
1722925440.09,0,0,0,0,-0.1100,-0.3100,-0.1900,3.5000,-0.4375,6.7500,0.98815917968750,-0.02368164062500,-0.09893798828125,-0.11462402343750
1722925440.09,0,0,0,0,-0.6100,-0.2500,-0.0800,-0.0625,0.1875,-4.3125,0.98815917968750,-0.02368164062500,-0.09893798828125,-0.11505126953125
1722925440.11,0,0,0,0,-1.4400,-0.1900,0.1600,-3.7500,-2.3125,-20.3750,0.98791503906250,-0.02380371093750,-0.09918212890625,-0.11682128906250
1722925440.12,0,0,0,0,-0.1800,-0.5300,-0.2200,-7.6875,-5.3125,-35.6875,0.98748779296875,-0.02423095703125,-0.09960937500000,-0.11993408203125
1722925440.13,0,0,0,0,0.3700,0.9700,-0.1200,-5.8125,-9.3125,-36.0625,0.98699951171875,-0.02453613281250,-0.10046386718750,-0.12310791015625
1722925440.14,0,0,0,0,0.9800,1.1100,-0.5700,-3.5000,-11.6250,-30.9375,0.98657226562500,-0.02465820312500,-0.10150146484375,-0.12573242187500
1722925440.15,0,0,0,0,0.2500,0.9600,-0.3300,-2.3125,-10.8125,-28.4375,0.98614501953125,-0.02471923828125,-0.10247802734375,-0.12817382812500
1722925440.16,0,0,0,0,-0.7000,0.3700,-0.0300,-0.3750,-3.5000,-10.6250,0.98596191406250,-0.02465820312500,-0.10278320312500,-0.12908935546875
1722925440.17,0,0,0,0,-0.7000,0.3700,-0.0300,-0.3750,-3.5000,-10.6250,0.98596191406250,-0.02465820312500,-0.10278320312500,-0.12908935546875
1722925440.17,0,0,0,0,-0.3800,0.3300,-0.2200,2.6250,-2.0625,5.8125,0.98602294921875,-0.02453613281250,-0.10296630859375,-0.12860107421875
1722925440.17,0,0,0,0,-0.1600,0.2500,-0.2000,4.3125,-1.6875,11.3750,0.98614501953125,-0.02423095703125,-0.10314941406250,-0.12756347656250
1722925440.18,0,0,0,0,-0.0400,-0.2000,-0.2900,3.2500,-1.6250,13.8750,0.98632812500000,-0.02410888671875,-0.10333251953125,-0.12634277343750
1722925440.20,0,0,0,0,0.0400,-0.5600,-0.3400,4.8125,-3.3125,17.8125,0.98645019531250,-0.02386474609375,-0.10363769531250,-0.12475585937500
1722925440.21,0,0,0,0,0.4400,-0.5500,-0.3400,5.6875,-6.1875,22.5625,0.98669433593750,-0.02368164062500,-0.10418701171875,-0.12274169921875
1722925440.22,0,0,0,0,1.1100,0.0400,-0.5200,7.1250,-9.2500,29.0625,0.98693847656250,-0.02337646484375,-0.10498046875000,-0.12011718750000
1722925440.23,0,0,0,0,1.4800,0.3400,-0.6200,7.5000,-9.4375,36.1250,0.98718261718750,-0.02319335937500,-0.10583496093750,-0.11694335937500
1722925440.24,0,0,0,0,0.9900,0.4000,-0.4600,6.6250,-6.0625,36.5000,0.98754882812500,-0.02301025390625,-0.10632324218750,-0.11370849609375
1722925440.25,0,0,0,0,0.1100,0.4200,-0.3500,5.8750,-3.6250,30.3750,0.98779296875000,-0.02282714843750,-0.10668945312500,-0.11102294921875
1722925440.25,0,0,0,0,-0.3600,0.2900,-0.1700,4.5625,-2.2500,16.8125,0.98797607421875,-0.02258300781250,-0.10687255859375,-0.10955810546875
1722925440.27,0,0,0,0,-0.6200,0.0000,-0.0300,3.3125,-1.1875,9.3125,0.98803710937500,-0.02239990234375,-0.10699462890625,-0.10870361328125
1722925440.28,0,0,0,0,-0.6300,-0.1500,-0.1700,1.6875,-3.2500,3.5000,0.98803710937500,-0.02227783203125,-0.10729980468750,-0.10839843750000
1722925440.29,0,0,0,0,0.2800,-0.4700,-0.3800,-0.1250,-5.7500,-5.8125,0.98791503906250,-0.02227783203125,-0.10778808593750,-0.10888671875000
1722925440.30,0,0,0,0,0.4300,-0.2200,-0.4000,0.0000,-4.0000,-1.0000,0.98791503906250,-0.02233886718750,-0.10815429687500,-0.10894775390625
1722925440.31,0,0,0,0,0.7700,-0.2700,-0.3800,3.0625,-2.3750,15.0625,0.98803710937500,-0.02221679687500,-0.10839843750000,-0.10760498046875
1722925440.32,0,0,0,0,1.1500,-0.6500,-0.4800,7.3125,-6.6250,29.3750,0.98822021484375,-0.02191162109375,-0.10894775390625,-0.10498046875000
1722925440.33,0,0,0,0,1.3400,0.2400,-0.6200,11.0625,-11.1250,41.6250,0.98852539062500,-0.02142333984375,-0.10998535156250,-0.10131835937500
1722925440.34,0,0,0,0,0.5900,-0.0600,-0.4500,9.4375,-9.5625,34.2500,0.98876953125000,-0.02105712890625,-0.11083984375000,-0.09820556640625
1722925440.35,0,0,0,0,-0.3000,-0.4800,-0.1500,1.6875,-4.3125,3.6875,0.98876953125000,-0.02093505859375,-0.11120605468750,-0.09790039062500
1722925440.36,0,0,0,0,-0.9100,1.2300,0.0000,-4.0000,-1.6250,-23.4375,0.98852539062500,-0.02111816406250,-0.11138916015625,-0.09991455078125
1722925440.37,0,0,0,0,-1.0600,0.4400,0.1100,-7.4375,-3.0000,-48.1875,0.98803710937500,-0.02130126953125,-0.11163330078125,-0.10418701171875
1722925440.38,0,0,0,0,-0.7000,-0.0600,0.0400,-13.8125,-4.5625,-81.4375,0.98718261718750,-0.02172851562500,-0.11206054687500,-0.11132812500000
1722925440.39,0,0,0,0,-0.3600,0.1200,0.0200,-15.9375,-11.1875,-101.9375,0.98602294921875,-0.02221679687500,-0.11309814453125,-0.12023925781250
1722925440.40,0,0,0,0,1.6700,0.8800,-0.3500,-17.5625,-20.9375,-129.3125,0.98437500000000,-0.02264404296875,-0.11499023437500,-0.13146972656250
1722925440.41,0,0,0,0,0.1600,-1.7200,-1.4700,-18.5000,-39.5625,-158.1250,0.98199462890625,-0.02313232421875,-0.11846923828125,-0.14514160156250
1722925440.42,0,0,0,0,-0.3200,-0.4200,-1.4600,-29.0625,-19.5000,-167.2500,0.97955322265625,-0.02410888671875,-0.12011718750000,-0.15972900390625
1722925440.42,0,0,0,0,-0.3200,-0.4200,-1.4600,-29.0625,-19.5000,-167.2500,0.97955322265625,-0.02410888671875,-0.12011718750000,-0.15972900390625
1722925440.43,0,0,0,0,-0.5400,-1.3100,-0.9900,-56.1250,75.6250,-149.3125,0.97802734375000,-0.02630615234375,-0.11315917968750,-0.17321777343750
1722925440.44,0,0,0,0,-1.5900,-2.2400,1.3500,-77.3125,143.1250,-140.2500,0.97692871093750,-0.02929687500000,-0.10009765625000,-0.18621826171875
1722925440.45,0,0,0,0,-0.7900,-0.9200,-0.2100,-19.7500,170.3125,-84.0000,0.97686767578125,-0.02752685546875,-0.08544921875000,-0.19396972656250
1722925440.46,0,0,0,0,-3.7000,-3.4600,0.1300,40.8125,140.8750,-38.8125,0.97729492187500,-0.02136230468750,-0.07421875000000,-0.19726562500000
1722925440.47,0,0,0,0,-1.3100,-2.1700,-0.2200,41.7500,124.2500,-1.9375,0.97808837890625,-0.01562500000000,-0.06433105468750,-0.19738769531250
1722925440.48,0,0,0,0,1.4300,0.6300,-0.2700,57.8125,146.0000,61.8125,0.97991943359375,-0.00854492187500,-0.05279541015625,-0.19195556640625
1722925440.49,0,0,0,0,5.9300,-5.8900,-0.3800,70.8125,183.5000,58.4375,0.98162841796875,0.00030517578125,-0.03826904296875,-0.18676757812500
1722925440.50,0,0,0,0,4.9400,-4.0200,1.0900,76.4375,207.7500,70.2500,0.98327636718750,0.01000976562500,-0.02172851562500,-0.18048095703125
1722925440.51,0,0,0,0,-1.4500,-2.0400,-4.4900,80.0625,319.6250,181.4375,0.98614501953125,0.02148437500000,0.00427246093750,-0.16436767578125
1722925440.52,0,0,0,0,-4.4100,4.6900,-6.2500,8.1250,204.5000,227.7500,0.98895263671875,0.02520751953125,0.02130126953125,-0.14434814453125
1722925440.53,0,0,0,0,-1.2100,5.1500,0.9100,-2.5625,-138.6875,177.4375,0.99127197265625,0.02355957031250,0.00897216796875,-0.12933349609375
1722925440.54,0,0,0,0,-3.4900,-0.2700,0.7300,-69.8125,-336.0625,48.7500,0.99176025390625,0.01373291015625,-0.01934814453125,-0.12567138671875
1722925440.55,0,0,0,0,0.1600,3.3400,-0.1700,-148.3125,-330.8125,40.6875,0.99133300781250,-0.00280761718750,-0.04638671875000,-0.12274169921875
1722925440.56,0,0,0,0,0.6900,-1.8400,-0.8700,-110.1875,-328.3125,44.6875,0.98999023437500,-0.01599121093750,-0.07354736328125,-0.11920166015625
1722925440.57,0,0,0,0,0.9900,4.6200,-0.3400,-10.6875,-176.0000,84.5625,0.98962402343750,-0.01928710937500,-0.08850097656250,-0.11169433593750
1722925440.58,0,0,0,0,1.6000,0.7100,-1.8700,78.5625,11.6250,107.8750,0.99078369140625,-0.01324462890625,-0.08807373046875,-0.10180664062500
1722925440.59,0,0,0,0,1.8000,1.7800,-0.5900,47.2500,107.6875,98.9375,0.99249267578125,-0.00897216796875,-0.07904052734375,-0.09295654296875
1722925440.60,0,0,0,0,-0.5900,-1.8100,0.8200,8.2500,168.3750,98.0625,0.99432373046875,-0.00756835937500,-0.06445312500000,-0.08453369140625
1722925440.61,0,0,0,0,-1.3100,-2.7000,0.3200,70.0625,244.2500,43.2500,0.99578857421875,0.00006103515625,-0.04376220703125,-0.08056640625000
1722925440.62,0,0,0,0,-3.6800,-1.9400,-0.0700,82.5625,222.9375,18.5625,0.99658203125000,0.00872802734375,-0.02496337890625,-0.07861328125000
1722925440.63,0,0,0,0,-0.4800,0.6500,-0.8100,64.7500,165.6875,-22.6875,0.99658203125000,0.01556396484375,-0.01098632812500,-0.08026123046875
1722925440.64,0,0,0,0,-1.3500,0.7300,0.1900,-9.5625,-26.2500,-35.0625,0.99633789062500,0.01458740234375,-0.01312255859375,-0.08337402343750
1722925440.65,0,0,0,0,0.5600,-1.1200,-0.0200,-68.8750,-121.7500,-48.9375,0.99584960937500,0.00775146484375,-0.02313232421875,-0.08789062500000
1722925440.66,0,0,0,0,0.4300,0.4700,-0.3500,-60.4375,-154.0000,-34.6875,0.99517822265625,0.00140380859375,-0.03607177734375,-0.09112548828125
1722925440.67,0,0,0,0,0.4300,-0.9400,-0.3800,-69.8125,-178.5000,-24.1250,0.99432373046875,-0.00604248046875,-0.05096435546875,-0.09344482421875
1722925440.68,0,0,0,0,-0.1700,0.1000,-0.1300,-56.5000,-137.2500,-17.7500,0.99340820312500,-0.01196289062500,-0.06243896484375,-0.09515380859375
1722925440.69,0,0,0,0,-0.1700,0.1000,-0.1300,-56.5000,-137.2500,-17.7500,0.99340820312500,-0.01196289062500,-0.06243896484375,-0.09515380859375
1722925440.69,0,0,0,0,0.5300,0.1800,-0.4500,-45.7500,-117.7500,-2.2500,0.99267578125000,-0.01690673828125,-0.07226562500000,-0.09545898437500
1722925440.70,0,0,0,0,0.2100,0.3200,-0.7900,-35.5625,-90.0000,-3.9375,0.99200439453125,-0.02069091796875,-0.07971191406250,-0.09588623046875
1722925440.71,0,0,0,0,0.9500,0.1400,-0.5100,-3.1250,-32.0000,1.6250,0.99176025390625,-0.02124023437500,-0.08245849609375,-0.09570312500000
1722925440.72,0,0,0,0,0.0400,-0.7000,-0.1600,9.7500,35.5000,3.5000,0.99206542968750,-0.02014160156250,-0.07946777343750,-0.09539794921875
1722925440.73,0,0,0,0,0.3700,-0.0900,-0.3500,27.8750,76.8750,-2.6875,0.99261474609375,-0.01708984375000,-0.07305908203125,-0.09558105468750
1722925440.74,0,0,0,0,-0.6100,0.1900,-0.0900,38.1875,101.3750,-1.0000,0.99322509765625,-0.01293945312500,-0.06457519531250,-0.09558105468750
1722925440.75,0,0,0,0,0.0100,0.0000,-0.3000,49.1875,129.8125,-0.6250,0.99395751953125,-0.00756835937500,-0.05377197265625,-0.09545898437500
1722925440.76,0,0,0,0,-0.7900,0.3300,0.1000,46.3750,121.9375,2.5625,0.99450683593750,-0.00256347656250,-0.04357910156250,-0.09509277343750
1722925440.77,0,0,0,0,-0.4400,0.1200,-0.1400,33.6875,94.0000,1.1875,0.99487304687500,0.00115966796875,-0.03570556640625,-0.09490966796875
1722925440.78,0,0,0,0,-0.7900,0.2300,-0.0500,9.1875,27.5625,0.3125,0.99493408203125,0.00219726562500,-0.03338623046875,-0.09484863281250
1722925440.79,0,0,0,0,0.3500,-0.0400,-0.2100,-9.1250,-27.5625,0.0000,0.99487304687500,0.00115966796875,-0.03564453125000,-0.09490966796875
1722925440.80,0,0,0,0,-0.1200,0.1200,-0.1900,-23.3125,-66.8125,-0.6875,0.99462890625000,-0.00140380859375,-0.04125976562500,-0.09503173828125
1722925440.81,0,0,0,0,0.2300,-0.0800,-0.2700,-22.4375,-58.8125,-4.3125,0.99432373046875,-0.00384521484375,-0.04620361328125,-0.09552001953125
1722925440.82,0,0,0,0,-0.2300,0.1000,-0.1300,-18.6875,-48.7500,-1.4375,0.99414062500000,-0.00585937500000,-0.05029296875000,-0.09570312500000
1722925440.83,0,0,0,0,0.2400,-0.0900,-0.2500,-14.6875,-38.3750,-0.4375,0.99395751953125,-0.00750732421875,-0.05346679687500,-0.09570312500000
1722925440.84,0,0,0,0,-0.2100,0.0800,-0.1700,-15.5625,-40.5625,0.0000,0.99371337890625,-0.00915527343750,-0.05688476562500,-0.09576416015625
1722925440.85,0,0,0,0,0.3200,-0.0900,-0.3200,-16.5625,-42.7500,-1.4375,0.99346923828125,-0.01098632812500,-0.06042480468750,-0.09594726562500
1722925440.86,0,0,0,0,0.0700,-0.0200,-0.2200,-14.2500,-35.8125,-1.8750,0.99328613281250,-0.01251220703125,-0.06341552734375,-0.09613037109375
1722925440.87,0,0,0,0,0.4300,-0.1300,-0.3800,-4.2500,-10.3125,-1.0625,0.99322509765625,-0.01293945312500,-0.06427001953125,-0.09625244140625
1722925440.88,0,0,0,0,-0.0200,0.0000,-0.2500,7.3125,19.6250,-0.5625,0.99328613281250,-0.01214599609375,-0.06262207031250,-0.09631347656250
1722925440.89,0,0,0,0,-0.0400,0.0200,-0.2400,17.0000,44.8125,-0.1875,0.99359130859375,-0.01031494140625,-0.05889892578125,-0.09625244140625
1722925440.90,0,0,0,0,-0.4600,0.1600,-0.1100,19.3125,51.0000,-0.0625,0.99383544921875,-0.00817871093750,-0.05462646484375,-0.09619140625000
1722925440.91,0,0,0,0,-0.0200,0.0100,-0.2200,16.5000,43.2500,-0.1875,0.99401855468750,-0.00640869140625,-0.05102539062500,-0.09613037109375
1722925440.92,0,0,0,0,-0.2300,0.0800,-0.1300,9.0000,23.9375,-0.0625,0.99414062500000,-0.00543212890625,-0.04901123046875,-0.09613037109375
1722925440.93,0,0,0,0,0.1300,-0.0500,-0.2500,4.2500,11.1875,-0.0625,0.99420166015625,-0.00494384765625,-0.04809570312500,-0.09606933593750
1722925440.94,0,0,0,0,-0.2000,0.0700,-0.1600,1.6875,4.5625,-0.1875,0.99420166015625,-0.00476074218750,-0.04766845703125,-0.09606933593750
1722925440.95,0,0,0,0,0.0700,-0.0300,-0.2300,3.6875,9.5000,0.0000,0.99426269531250,-0.00439453125000,-0.04687500000000,-0.09606933593750
1722925440.96,0,0,0,0,-0.1700,0.0600,-0.1300,3.3750,8.9375,0.0000,0.99450683593750,-0.00109863281250,-0.04119873046875,-0.09619140625000
1722925440.97,0,0,0,0,0.0800,-0.0400,-0.2300,1.8125,5.2500,-0.1250,0.99450683593750,-0.00091552734375,-0.04071044921875,-0.09619140625000
1722925440.98,0,0,0,0,0.0800,-0.0400,-0.2300,1.8125,5.2500,-0.1250,0.99450683593750,-0.00091552734375,-0.04071044921875,-0.09619140625000
1722925440.98,0,0,0,0,-0.1300,0.0400,-0.1400,-4.6250,-11.7500,0.0000,0.99450683593750,-0.00140380859375,-0.04174804687500,-0.09619140625000
1722925440.99,0,0,0,0,0.1500,-0.0600,-0.2500,-9.0000,-23.2500,-0.5625,0.99438476562500,-0.00238037109375,-0.04364013671875,-0.09631347656250
1722925441.00,0,0,0,0,0.1600,-0.0800,-0.2400,-11.8750,-30.8750,-0.6875,0.99426269531250,-0.00366210937500,-0.04626464843750,-0.09637451171875
1722925441.01,0,0,0,0,0.3800,-0.1200,-0.3100,-7.3750,-19.0000,-0.3125,0.99420166015625,-0.00445556640625,-0.04785156250000,-0.09643554687500
1722925441.02,0,0,0,0,0.0600,-0.0600,-0.2000,-1.8125,-4.5625,-0.1875,0.99414062500000,-0.00469970703125,-0.04821777343750,-0.09643554687500
1722925441.03,0,0,0,0,0.0700,-0.0400,-0.2200,5.4375,14.7500,-0.6875,0.99420166015625,-0.00408935546875,-0.04699707031250,-0.09649658203125
1722925441.04,0,0,0,0,-0.2000,0.0600,-0.1400,6.5000,17.3125,-0.5625,0.99426269531250,-0.00335693359375,-0.04553222656250,-0.09649658203125
1722925441.05,0,0,0,0,0.0700,-0.0400,-0.2100,4.7500,12.4375,-0.1875,0.99432373046875,-0.00286865234375,-0.04449462890625,-0.09649658203125
1722925441.06,0,0,0,0,-0.0200,-0.0200,-0.1900,-1.6875,-4.3125,-0.0625,0.99432373046875,-0.00305175781250,-0.04486083984375,-0.09649658203125
1722925441.07,0,0,0,0,0.1000,-0.0400,-0.2400,-3.7500,-9.8125,0.0000,0.99426269531250,-0.00347900390625,-0.04571533203125,-0.09649658203125
1722925441.08,0,0,0,0,0.0200,-0.0100,-0.2000,-4.1250,-10.8125,0.0000,0.99420166015625,-0.00390625000000,-0.04663085937500,-0.09649658203125
1722925441.09,0,0,0,0,0.1700,-0.0500,-0.2500,0.8125,2.6875,-0.0625,0.99426269531250,-0.00384521484375,-0.04638671875000,-0.09649658203125
1722925441.10,0,0,0,0,0.0000,0.0000,-0.2000,3.0000,8.0000,-0.0625,0.99426269531250,-0.00347900390625,-0.04571533203125,-0.09649658203125
1722925441.11,0,0,0,0,0.0600,-0.0400,-0.2100,4.1875,11.1875,-0.2500,0.99432373046875,-0.00305175781250,-0.04479980468750,-0.09649658203125
1722925441.12,0,0,0,0,-0.0500,0.0000,-0.1600,-0.6875,-1.8750,0.0000,0.99432373046875,-0.00311279296875,-0.04498291015625,-0.09649658203125
1722925441.13,0,0,0,0,0.1300,-0.0600,-0.2100,-4.0000,-9.9375,-0.3750,0.99426269531250,-0.00354003906250,-0.04583740234375,-0.09649658203125
1722925441.14,0,0,0,0,0.1800,-0.0800,-0.2700,-6.8750,-17.5625,-0.6875,0.99420166015625,-0.00433349609375,-0.04730224609375,-0.09661865234375
1722925441.15,0,0,0,0,0.2300,-0.0900,-0.2800,-2.6250,-6.6875,-0.0625,0.99414062500000,-0.00463867187500,-0.04791259765625,-0.09661865234375
1722925441.16,0,0,0,0,0.0000,0.0000,-0.2100,1.4375,4.1250,-0.1875,0.99420166015625,-0.00451660156250,-0.04760742187500,-0.09661865234375
1722925441.17,0,0,0,0,-0.0200,-0.0100,-0.1800,7.0000,18.3750,0.0000,0.99426269531250,-0.00372314453125,-0.04608154296875,-0.09655761718750
1722925441.18,0,0,0,0,-0.0300,0.0000,-0.1900,5.6875,15.1250,0.0000,0.99432373046875,-0.00311279296875,-0.04479980468750,-0.09655761718750
1722925441.19,0,0,0,0,0.0600,-0.0400,-0.2100,2.5625,6.6250,-0.0625,0.99432373046875,-0.00286865234375,-0.04425048828125,-0.09655761718750
1722925441.20,0,0,0,0,0.0600,-0.0500,-0.1900,-4.3125,-11.0625,0.0000,0.99432373046875,-0.00335693359375,-0.04522705078125,-0.09655761718750
1722925441.21,0,0,0,0,0.1300,-0.0600,-0.2400,-6.0625,-15.5625,-0.0625,0.99420166015625,-0.00402832031250,-0.04650878906250,-0.09655761718750
1722925441.22,0,0,0,0,0.2500,-0.0900,-0.2600,-5.3750,-14.3125,0.0000,0.99414062500000,-0.00463867187500,-0.04779052734375,-0.09661865234375
1722925441.23,0,0,0,0,0.1300,-0.0300,-0.2400,0.4375,0.9375,0.0000,0.99414062500000,-0.00463867187500,-0.04772949218750,-0.09661865234375
1722925441.24,0,0,0,0,-0.0200,0.0000,-0.2000,3.7500,10.0625,-0.1875,0.99420166015625,-0.00421142578125,-0.04693603515625,-0.09655761718750
1722925441.25,0,0,0,0,-0.1000,0.0100,-0.1500,5.5625,14.8125,-0.1250,0.99426269531250,-0.00360107421875,-0.04565429687500,-0.09655761718750
1722925441.26,0,0,0,0,0.0200,0.0000,-0.2000,1.4375,4.6250,-0.0625,0.99426269531250,-0.00347900390625,-0.04528808593750,-0.09655761718750
1722925441.27,0,0,0,0,0.1400,-0.0400,-0.2300,-1.8125,-4.8750,-0.1250,0.99426269531250,-0.00366210937500,-0.04571533203125,-0.09655761718750
1722925441.28,0,0,0,0,0.1900,-0.0700,-0.2500,-4.9375,-12.8750,0.0000,0.99420166015625,-0.00421142578125,-0.04681396484375,-0.09655761718750
1722925441.29,0,0,0,0,0.0900,-0.0600,-0.2500,-2.6250,-6.8125,0.0000,0.99420166015625,-0.00451660156250,-0.04742431640625,-0.09655761718750
1722925441.30,0,0,0,0,0.0000,0.0000,-0.2000,0.5625,1.7500,-0.1250,0.99420166015625,-0.00445556640625,-0.04730224609375,-0.09655761718750
1722925441.31,0,0,0,0,-0.0300,0.0100,-0.1900,4.5000,11.6875,0.0000,0.99426269531250,-0.00396728515625,-0.04632568359375,-0.09655761718750
1722925441.32,0,0,0,0,-0.0100,0.0000,-0.1800,3.6250,9.9375,0.0000,0.99426269531250,-0.00360107421875,-0.04547119140625,-0.09655761718750
1722925441.33,0,0,0,0,-0.0900,0.0300,-0.1500,0.6875,2.1250,-0.1250,0.99426269531250,-0.00347900390625,-0.04528808593750,-0.09655761718750
1722925441.34,0,0,0,0,0.1200,-0.0500,-0.2400,-3.8750,-10.0625,-0.1250,0.99426269531250,-0.00390625000000,-0.04614257812500,-0.09655761718750
1722925441.35,0,0,0,0,0.1500,-0.0400,-0.2500,-5.1875,-13.0625,-0.1250,0.99420166015625,-0.00451660156250,-0.04724121093750,-0.09655761718750
1722925441.36,0,0,0,0,0.2000,-0.0800,-0.2600,-3.1250,-8.0000,-0.0625,0.99414062500000,-0.00488281250000,-0.04797363281250,-0.09661865234375
1722925441.37,0,0,0,0,0.0300,-0.0300,-0.2000,1.5625,4.3750,0.0000,0.99420166015625,-0.00469970703125,-0.04760742187500,-0.09655761718750
1722925441.38,0,0,0,0,-0.0600,0.0000,-0.1900,4.9375,13.1875,0.0000,0.99420166015625,-0.00415039062500,-0.04650878906250,-0.09655761718750
1722925441.39,0,0,0,0,-0.1000,0.0200,-0.1600,5.0000,13.2500,-0.1250,0.99426269531250,-0.00360107421875,-0.04541015625000,-0.09655761718750
1722925441.40,0,0,0,0,0.0400,0.0000,-0.2000,1.3125,3.3750,-0.0625,0.99432373046875,-0.00347900390625,-0.04516601562500,-0.09655761718750
1722925441.41,0,0,0,0,0.0000,-0.0100,-0.1900,-3.1875,-8.1875,-0.0625,0.99426269531250,-0.00384521484375,-0.04583740234375,-0.09655761718750
1722925441.42,0,0,0,0,0.2100,-0.0800,-0.2400,-5.3125,-13.8750,-0.0625,0.99420166015625,-0.00439453125000,-0.04699707031250,-0.09655761718750
1722925441.43,0,0,0,0,0.1300,-0.0300,-0.2300,-3.6875,-9.5625,-0.1250,0.99414062500000,-0.00482177734375,-0.04785156250000,-0.09655761718750
1722925441.44,0,0,0,0,0.1400,-0.0400,-0.2700,0.4375,1.3750,0.0000,0.99414062500000,-0.00482177734375,-0.04779052734375,-0.09655761718750
1722925441.45,0,0,0,0,-0.0400,0.0000,-0.1800,3.6875,10.0625,0.0000,0.99420166015625,-0.00445556640625,-0.04693603515625,-0.09655761718750
1722925441.46,0,0,0,0,-0.0200,0.0100,-0.1800,4.3125,11.3750,0.0000,0.99426269531250,-0.00396728515625,-0.04595947265625,-0.09655761718750
1722925441.47,0,0,0,0,-0.0400,0.0100,-0.1800,1.0625,3.0625,0.0000,0.99426269531250,-0.00384521484375,-0.04571533203125,-0.09655761718750
1722925441.48,0,0,0,0,0.0700,-0.0500,-0.2400,-2.3125,-6.0625,-0.1250,0.99426269531250,-0.00408935546875,-0.04626464843750,-0.09655761718750
1722925441.49,0,0,0,0,0.1200,-0.0400,-0.2300,-4.3125,-11.0625,0.0000,0.99420166015625,-0.00457763671875,-0.04718017578125,-0.09655761718750
1722925441.50,0,0,0,0,0.1700,-0.0700,-0.2500,-2.2500,-6.0000,-0.0625,0.99414062500000,-0.00482177734375,-0.04772949218750,-0.09655761718750
1722925441.51,0,0,0,0,0.0200,0.0000,-0.2200,0.9375,2.6250,0.0000,0.99420166015625,-0.00476074218750,-0.04754638671875,-0.09655761718750
1722925441.52,0,0,0,0,0.0000,0.0000,-0.2200,4.1250,10.8125,-0.0625,0.99420166015625,-0.00427246093750,-0.04663085937500,-0.09655761718750
1722925441.53,0,0,0,0,-0.0700,0.0000,-0.1600,3.4375,8.8750,0.0000,0.99426269531250,-0.00390625000000,-0.04589843750000,-0.09655761718750
1722925441.54,0,0,0,0,0.0500,-0.0300,-0.2200,0.5000,1.4375,0.0000,0.99426269531250,-0.00390625000000,-0.04577636718750,-0.09655761718750
1722925441.55,0,0,0,0,0.0700,-0.0100,-0.2200,-3.5625,-9.2500,0.0000,0.99420166015625,-0.00433349609375,-0.04656982421875,-0.09655761718750
1722925441.56,0,0,0,0,0.1300,-0.0500,-0.2400,-4.3750,-11.5625,-0.1250,0.99420166015625,-0.00482177734375,-0.04754638671875,-0.09655761718750
1722925441.57,0,0,0,0,0.0700,-0.0200,-0.2100,-2.7500,-7.1875,-0.0625,0.99414062500000,-0.00512695312500,-0.04815673828125,-0.09661865234375
1722925441.58,0,0,0,0,0.0800,-0.0300,-0.2300,1.5000,4.3125,-0.1250,0.99414062500000,-0.00494384765625,-0.04779052734375,-0.09655761718750
1722925441.59,0,0,0,0,-0.0400,-0.0100,-0.2200,4.0000,10.7500,-0.1875,0.99420166015625,-0.00451660156250,-0.04693603515625,-0.09655761718750
1722925441.60,0,0,0,0,-0.0600,0.0100,-0.1900,4.3750,11.1250,-0.0625,0.99426269531250,-0.00402832031250,-0.04595947265625,-0.09655761718750
1722925441.61,0,0,0,0,-0.0300,0.0000,-0.1600,0.6250,1.6250,0.0000,0.99426269531250,-0.00396728515625,-0.04583740234375,-0.09655761718750
1722925441.62,0,0,0,0,0.1100,-0.0300,-0.2400,-4.6250,-11.7500,0.0000,0.99420166015625,-0.00445556640625,-0.04681396484375,-0.09655761718750
1722925441.63,0,0,0,0,0.1300,-0.0500,-0.2200,-4.6250,-11.7500,0.0000,0.99414062500000,-0.00500488281250,-0.04785156250000,-0.09655761718750
1722925441.64,0,0,0,0,0.1100,-0.0400,-0.2600,-2.3125,-6.1875,0.0000,0.99414062500000,-0.00524902343750,-0.04840087890625,-0.09661865234375
1722925441.65,0,0,0,0,0.0000,0.0000,-0.2000,0.5625,1.8750,-0.0625,0.99414062500000,-0.00518798828125,-0.04821777343750,-0.09661865234375
1722925441.66,0,0,0,0,-0.0100,0.0100,-0.1900,3.6875,10.0625,-0.0625,0.99420166015625,-0.00476074218750,-0.04742431640625,-0.09655761718750
1722925441.67,0,0,0,0,-0.0500,0.0100,-0.1800,0.6875,2.0625,-0.0625,0.99420166015625,-0.00469970703125,-0.04724121093750,-0.09655761718750
1722925441.68,0,0,0,0,0.0500,-0.0200,-0.2100,0.6875,2.0625,-0.0625,0.99420166015625,-0.00463867187500,-0.04705810546875,-0.09655761718750
1722925441.69,0,0,0,0,0.0600,-0.0200,-0.2500,-2.9375,-7.4375,-0.1875,0.99414062500000,-0.00494384765625,-0.04766845703125,-0.09655761718750
1722925441.70,0,0,0,0,0.1000,-0.0300,-0.2500,-3.6250,-9.1875,0.0000,0.99414062500000,-0.00537109375000,-0.04846191406250,-0.09661865234375
1722925441.71,0,0,0,0,0.1300,-0.0600,-0.2400,-2.1875,-5.6250,-0.0625,0.99407958984375,-0.00561523437500,-0.04895019531250,-0.09661865234375
1722925441.72,0,0,0,0,0.0300,0.0000,-0.2500,3.4375,9.3125,-0.0625,0.99414062500000,-0.00524902343750,-0.04821777343750,-0.09655761718750
1722925441.73,0,0,0,0,-0.0700,0.0200,-0.1900,3.4375,9.3125,-0.0625,0.99420166015625,-0.00482177734375,-0.04742431640625,-0.09655761718750
1722925441.74,0,0,0,0,-0.0800,0.0200,-0.1900,3.2500,8.8125,-0.0625,0.99420166015625,-0.00451660156250,-0.04669189453125,-0.09655761718750
1722925441.75,0,0,0,0,0.0000,0.0000,-0.2000,0.0000,0.1875,-0.1250,0.99420166015625,-0.00451660156250,-0.04669189453125,-0.09655761718750
1722925441.76,0,0,0,0,0.0800,-0.0400,-0.2400,-4.0625,-10.7500,-0.0625,0.99420166015625,-0.00494384765625,-0.04760742187500,-0.09655761718750
1722925441.77,0,0,0,0,0.1300,-0.0300,-0.2200,-2.0000,-4.9375,-0.0625,0.99414062500000,-0.00518798828125,-0.04803466796875,-0.09655761718750
1722925441.78,0,0,0,0,0.1100,-0.0500,-0.2300,1.0000,3.1875,-0.2500,0.99414062500000,-0.00506591796875,-0.04779052734375,-0.09655761718750
1722925441.79,0,0,0,0,-0.0100,0.0100,-0.2000,3.7500,9.8125,-0.0625,0.99420166015625,-0.00463867187500,-0.04699707031250,-0.09655761718750
1722925441.80,0,0,0,0,-0.0100,0.0000,-0.1700,3.0625,8.0625,-0.1250,0.99426269531250,-0.00433349609375,-0.04632568359375,-0.09655761718750
1722925441.81,0,0,0,0,-0.0300,0.0000,-0.1900,0.2500,1.1875,0.0000,0.99426269531250,-0.00433349609375,-0.04620361328125,-0.09655761718750
1722925441.82,0,0,0,0,-0.0300,0.0000,-0.1700,-2.6250,-7.2500,-0.0625,0.99420166015625,-0.00457763671875,-0.04681396484375,-0.09655761718750
1722925441.83,0,0,0,0,0.0800,-0.0300,-0.2400,-3.5625,-9.3750,0.0000,0.99420166015625,-0.00500488281250,-0.04760742187500,-0.09655761718750
1722925441.84,0,0,0,0,0.1100,-0.0500,-0.2200,-2.0000,-5.1250,-0.0625,0.99414062500000,-0.00524902343750,-0.04803466796875,-0.09655761718750
1722925441.85,0,0,0,0,0.1200,-0.0500,-0.2300,1.1250,3.4375,-0.0625,0.99414062500000,-0.00512695312500,-0.04779052734375,-0.09655761718750
1722925441.86,0,0,0,0,0.0500,-0.0100,-0.2200,3.2500,8.3750,-0.0625,0.99420166015625,-0.00476074218750,-0.04711914062500,-0.09655761718750
1722925441.87,0,0,0,0,-0.0300,0.0000,-0.1800,2.6875,7.3125,0.0000,0.99420166015625,-0.00445556640625,-0.04650878906250,-0.09655761718750
1722925441.88,0,0,0,0,-0.0400,0.0000,-0.1900,0.0000,0.0000,0.0000,0.99420166015625,-0.00445556640625,-0.04650878906250,-0.09655761718750
1722925441.89,0,0,0,0,0.0200,-0.0100,-0.2000,-2.6250,-6.8125,0.0000,0.99420166015625,-0.00476074218750,-0.04705810546875,-0.09655761718750
1722925441.90,0,0,0,0,0.0200,0.0000,-0.2300,-3.3125,-8.6250,0.0000,0.99414062500000,-0.00512695312500,-0.04779052734375,-0.09655761718750
1722925441.91,0,0,0,0,0.1000,-0.0400,-0.2200,-1.4375,-3.7500,-0.1250,0.99414062500000,-0.00531005859375,-0.04809570312500,-0.09655761718750
1722925441.92,0,0,0,0,0.0800,-0.0200,-0.2100,1.5000,4.0625,-0.1250,0.99414062500000,-0.00512695312500,-0.04779052734375,-0.09655761718750
1722925441.93,0,0,0,0,0.0900,-0.0100,-0.2200,3.1875,8.5625,-0.0625,0.99420166015625,-0.00476074218750,-0.04711914062500,-0.09655761718750
1722925441.94,0,0,0,0,-0.0100,-0.0200,-0.2200,2.6250,6.8750,0.0000,0.99420166015625,-0.00451660156250,-0.04650878906250,-0.09655761718750
1722925441.95,0,0,0,0,-0.0200,0.0000,-0.2000,-0.1875,-0.2500,-0.1250,0.99420166015625,-0.00451660156250,-0.04650878906250,-0.09655761718750
1722925441.96,0,0,0,0,0.0000,0.0000,-0.2100,-2.7500,-7.1875,-0.0625,0.99420166015625,-0.00482177734375,-0.04711914062500,-0.09655761718750
1722925441.97,0,0,0,0,0.0900,0.0000,-0.1500,-3.4375,-8.9375,-0.3125,0.99414062500000,-0.00518798828125,-0.04791259765625,-0.09655761718750
1722925441.98,0,0,0,0,0.1100,-0.0200,-0.2400,-1.6250,-4.1250,-0.2500,0.99414062500000,-0.00537109375000,-0.04821777343750,-0.09655761718750
1722925441.99,0,0,0,0,0.0800,-0.0300,-0.2300,1.3125,3.5625,-0.0625,0.99414062500000,-0.00524902343750,-0.04797363281250,-0.09655761718750
1722925442.00,0,0,0,0,0.0200,-0.0200,-0.2100,3.0625,8.0000,-0.0625,0.99420166015625,-0.00488281250000,-0.04730224609375,-0.09655761718750
1722925442.01,0,0,0,0,-0.0100,0.0000,-0.2000,2.3750,6.3125,0.0000,0.99420166015625,-0.00463867187500,-0.04675292968750,-0.09655761718750
1722925442.02,0,0,0,0,-0.0100,0.0100,-0.1600,-0.1875,-0.1250,-0.0625,0.99420166015625,-0.00463867187500,-0.04675292968750,-0.09655761718750
1722925442.03,0,0,0,0,0.0300,-0.0100,-0.1800,-2.6875,-6.8125,-0.0625,0.99420166015625,-0.00494384765625,-0.04730224609375,-0.09655761718750
1722925442.04,0,0,0,0,0.0500,-0.0300,-0.2500,-3.1250,-8.0625,-0.1250,0.99414062500000,-0.00524902343750,-0.04803466796875,-0.09655761718750
1722925442.05,0,0,0,0,0.1000,-0.0500,-0.2600,-1.2500,-3.3125,-0.1250,0.99414062500000,-0.00543212890625,-0.04827880859375,-0.09655761718750
1722925442.06,0,0,0,0,0.0600,0.0000,-0.2400,1.5000,3.8750,-0.0625,0.99414062500000,-0.00524902343750,-0.04797363281250,-0.09655761718750
1722925442.07,0,0,0,0,0.0300,-0.0200,-0.2000,2.9375,8.0000,-0.0625,0.99420166015625,-0.00494384765625,-0.04730224609375,-0.09655761718750
1722925442.08,0,0,0,0,-0.0100,0.0000,-0.1900,2.1875,6.0625,0.0000,0.99420166015625,-0.00469970703125,-0.04681396484375,-0.09655761718750
1722925442.09,0,0,0,0,-0.0100,0.0000,-0.2000,-0.3125,-0.6250,0.0000,0.99420166015625,-0.00469970703125,-0.04687500000000,-0.09655761718750
1722925442.10,0,0,0,0,0.0100,0.0000,-0.2000,-2.6250,-6.6875,0.0000,0.99420166015625,-0.00500488281250,-0.04742431640625,-0.09655761718750
1722925442.11,0,0,0,0,0.1000,-0.0300,-0.2500,-3.0625,-7.8125,0.0000,0.99414062500000,-0.00531005859375,-0.04809570312500,-0.09655761718750
1722925442.12,0,0,0,0,0.0900,-0.0300,-0.2400,-1.1250,-2.6250,-0.1875,0.99414062500000,-0.00543212890625,-0.04827880859375,-0.09655761718750
1722925442.13,0,0,0,0,0.0700,-0.0200,-0.2300,1.3750,3.9375,-0.1250,0.99414062500000,-0.00531005859375,-0.04797363281250,-0.09655761718750
1722925442.14,0,0,0,0,0.0100,0.0100,-0.2100,2.8750,7.8125,-0.1250,0.99420166015625,-0.00494384765625,-0.04730224609375,-0.09655761718750
1722925442.15,0,0,0,0,-0.0200,0.0000,-0.1900,2.0625,5.3125,0.0000,0.99420166015625,-0.00476074218750,-0.04687500000000,-0.09655761718750
1722925442.16,0,0,0,0,-0.0300,0.0100,-0.1700,-0.2500,-0.5625,0.0000,0.99420166015625,-0.00476074218750,-0.04693603515625,-0.09655761718750
1722925442.17,0,0,0,0,0.0400,-0.0100,-0.2100,-2.6250,-6.6875,-0.0625,0.99420166015625,-0.00506591796875,-0.04748535156250,-0.09655761718750
1722925442.18,0,0,0,0,0.0700,-0.0100,-0.2100,-2.6875,-7.2500,-0.0625,0.99414062500000,-0.00531005859375,-0.04809570312500,-0.09655761718750
1722925442.19,0,0,0,0,0.1200,-0.0300,-0.2500,-1.1875,-2.8125,0.0000,0.99414062500000,-0.00549316406250,-0.04833984375000,-0.09655761718750
1722925442.20,0,0,0,0,0.1000,-0.0300,-0.2200,1.4375,4.0000,-0.1250,0.99414062500000,-0.00531005859375,-0.04803466796875,-0.09655761718750
1722925442.21,0,0,0,0,0.0300,0.0100,-0.1900,2.6250,7.0000,-0.0625,0.99420166015625,-0.00500488281250,-0.04742431640625,-0.09655761718750
1722925442.22,0,0,0,0,-0.0200,0.0000,-0.2100,1.9375,5.3125,-0.1250,0.99420166015625,-0.00482177734375,-0.04699707031250,-0.09655761718750
1722925442.23,0,0,0,0,-0.0200,0.0000,-0.2100,-0.4375,-1.0625,-0.1250,0.99420166015625,-0.00482177734375,-0.04705810546875,-0.09655761718750
1722925442.24,0,0,0,0,0.0200,-0.0100,-0.2000,-2.3125,-5.9375,0.0000,0.99420166015625,-0.00506591796875,-0.04754638671875,-0.09655761718750
1722925442.25,0,0,0,0,0.1000,-0.0300,-0.2400,-2.6250,-6.7500,-0.0625,0.99414062500000,-0.00537109375000,-0.04815673828125,-0.09655761718750
1722925442.26,0,0,0,0,0.0800,-0.0200,-0.2200,-0.8125,-1.5625,-0.0625,0.99414062500000,-0.00543212890625,-0.04827880859375,-0.09655761718750
1722925442.27,0,0,0,0,0.0700,-0.0300,-0.2100,1.5625,4.0625,-0.0625,0.99414062500000,-0.00524902343750,-0.04791259765625,-0.09655761718750
1722925442.28,0,0,0,0,0.0400,-0.0100,-0.1900,2.6875,7.0000,0.0000,0.99420166015625,-0.00500488281250,-0.04736328125000,-0.09655761718750
1722925442.29,0,0,0,0,-0.0100,0.0000,-0.2200,1.6875,4.2500,0.0000,0.99420166015625,-0.00482177734375,-0.04699707031250,-0.09655761718750
1722925442.30,0,0,0,0,-0.0200,0.0100,-0.2000,-0.3750,-1.3125,0.0000,0.99420166015625,-0.00482177734375,-0.04711914062500,-0.09655761718750
1722925442.31,0,0,0,0,0.0100,0.0000,-0.2100,-2.6250,-6.4375,0.0000,0.99414062500000,-0.00506591796875,-0.04766845703125,-0.09655761718750
1722925442.32,0,0,0,0,0.0800,-0.0300,-0.2200,-2.3750,-6.3750,0.0000,0.99414062500000,-0.00537109375000,-0.04821777343750,-0.09655761718750
1722925442.33,0,0,0,0,0.1000,-0.0600,-0.2000,-0.7500,-1.8750,-0.0625,0.99414062500000,-0.00543212890625,-0.04833984375000,-0.09655761718750
1722925442.34,0,0,0,0,0.0700,-0.0200,-0.2200,1.5625,4.3125,0.0000,0.99414062500000,-0.00524902343750,-0.04797363281250,-0.09655761718750
1722925442.35,0,0,0,0,0.0300,-0.0200,-0.2600,2.5000,6.6875,0.0000,0.99420166015625,-0.00500488281250,-0.04742431640625,-0.09655761718750
1722925442.36,0,0,0,0,-0.0200,0.0000,-0.2000,1.6875,4.6250,-0.0625,0.99420166015625,-0.00482177734375,-0.04705810546875,-0.09655761718750
1722925442.37,0,0,0,0,-0.0100,0.0000,-0.2000,-0.5000,-1.3750,-0.0625,0.99420166015625,-0.00482177734375,-0.04718017578125,-0.09655761718750
1722925442.38,0,0,0,0,0.0100,-0.0100,-0.2100,-2.3125,-5.8125,0.0000,0.99414062500000,-0.00506591796875,-0.04766845703125,-0.09655761718750
1722925442.39,0,0,0,0,0.0700,-0.0300,-0.2300,-2.4375,-5.8125,-0.1250,0.99414062500000,-0.00531005859375,-0.04815673828125,-0.09655761718750
1722925442.40,0,0,0,0,0.0900,-0.0300,-0.2300,-0.5625,-1.5000,0.0000,0.99414062500000,-0.00543212890625,-0.04827880859375,-0.09655761718750
1722925442.41,0,0,0,0,0.0600,-0.0100,-0.2200,1.4375,3.8750,-0.0625,0.99414062500000,-0.00524902343750,-0.04797363281250,-0.09655761718750
1722925442.42,0,0,0,0,0.0500,0.0000,-0.2400,2.3750,6.4375,0.0000,0.99420166015625,-0.00500488281250,-0.04742431640625,-0.09655761718750
1722925442.43,0,0,0,0,0.0000,0.0000,-0.2200,1.3125,3.6250,-0.0625,0.99420166015625,-0.00482177734375,-0.04711914062500,-0.09655761718750
1722925442.44,0,0,0,0,0.0000,0.0000,-0.2000,-0.6250,-1.5625,-0.0625,0.99420166015625,-0.00488281250000,-0.04724121093750,-0.09655761718750
1722925442.45,0,0,0,0,0.0300,-0.0200,-0.2200,-2.2500,-5.9375,-0.0625,0.99414062500000,-0.00518798828125,-0.04779052734375,-0.09655761718750
1722925442.46,0,0,0,0,0.0700,-0.0100,-0.2500,-2.1250,-5.5000,0.0000,0.99414062500000,-0.00537109375000,-0.04821777343750,-0.09655761718750
1722925442.47,0,0,0,0,0.0900,-0.0200,-0.2500,-0.3750,-0.9375,0.0000,0.99414062500000,-0.00537109375000,-0.04833984375000,-0.09655761718750
1722925442.48,0,0,0,0,0.0500,-0.0300,-0.2000,1.5000,4.0625,0.0000,0.99414062500000,-0.00524902343750,-0.04797363281250,-0.09655761718750
1722925442.49,0,0,0,0,0.0300,-0.0100,-0.2500,2.2500,6.0625,0.0625,0.99420166015625,-0.00500488281250,-0.04748535156250,-0.09655761718750
1722925442.50,0,0,0,0,-0.0100,0.0000,-0.2000,1.2500,3.4375,-0.0625,0.99420166015625,-0.00482177734375,-0.04718017578125,-0.09655761718750
1722925442.51,0,0,0,0,0.0200,-0.0200,-0.1600,-0.7500,-1.8750,-0.1250,0.99420166015625,-0.00494384765625,-0.04736328125000,-0.09655761718750
1722925442.52,0,0,0,0,0.0600,-0.0100,-0.1900,-2.2500,-5.8125,-0.1250,0.99414062500000,-0.00518798828125,-0.04785156250000,-0.09655761718750
1722925442.53,0,0,0,0,0.1000,-0.0400,-0.2200,-2.1875,-5.6875,-0.1250,0.99414062500000,-0.00543212890625,-0.04833984375000,-0.09655761718750
1722925442.54,0,0,0,0,0.1100,-0.0200,-0.2200,-0.4375,-1.3750,-0.0625,0.99414062500000,-0.00543212890625,-0.04846191406250,-0.09655761718750
1722925442.55,0,0,0,0,0.0700,-0.0100,-0.2200,1.3125,3.6875,0.0000,0.99414062500000,-0.00531005859375,-0.04815673828125,-0.09655761718750
1722925442.56,0,0,0,0,0.0200,0.0000,-0.2200,2.2500,5.6875,-0.1250,0.99420166015625,-0.00506591796875,-0.04766845703125,-0.09655761718750
1722925442.57,0,0,0,0,0.0000,0.0000,-0.1900,1.1875,3.5625,-0.1875,0.99420166015625,-0.00488281250000,-0.04736328125000,-0.09655761718750
1722925442.58,0,0,0,0,0.0000,0.0100,-0.1900,-0.5000,-1.3125,-0.1250,0.99420166015625,-0.00494384765625,-0.04748535156250,-0.09655761718750
1722925442.59,0,0,0,0,0.0400,0.0000,-0.2300,-1.9375,-4.9375,0.0000,0.99414062500000,-0.00512695312500,-0.04791259765625,-0.09655761718750
1722925442.60,0,0,0,0,0.0700,-0.0200,-0.2500,-1.5625,-4.0625,-0.3125,0.99414062500000,-0.00531005859375,-0.04821777343750,-0.09655761718750
1722925442.61,0,0,0,0,0.0500,-0.0200,-0.2400,0.0000,0.0000,-0.1250,0.99414062500000,-0.00531005859375,-0.04821777343750,-0.09655761718750
1722925442.62,0,0,0,0,0.0500,-0.0300,-0.2200,1.5625,4.3125,-0.1250,0.99414062500000,-0.00512695312500,-0.04791259765625,-0.09655761718750
1722925442.63,0,0,0,0,-0.0100,0.0000,-0.1900,2.0000,5.4375,-0.0625,0.99420166015625,-0.00494384765625,-0.04742431640625,-0.09655761718750
1722925442.64,0,0,0,0,-0.0400,-0.0100,-0.1800,0.6875,2.3125,0.0000,0.99420166015625,-0.00482177734375,-0.04724121093750,-0.09655761718750
1722925442.65,0,0,0,0,-0.0300,-0.0200,-0.2000,-1.0625,-2.8125,-0.1875,0.99420166015625,-0.00494384765625,-0.04748535156250,-0.09655761718750
1722925442.66,0,0,0,0,0.0500,-0.0300,-0.2200,-2.3750,-6.0000,-0.1250,0.99414062500000,-0.00518798828125,-0.04797363281250,-0.09655761718750
1722925442.67,0,0,0,0,0.0800,-0.0500,-0.2200,-2.0000,-4.9375,-0.1875,0.99414062500000,-0.00543212890625,-0.04840087890625,-0.09655761718750
1722925442.68,0,0,0,0,0.0900,-0.0400,-0.2200,-0.3125,-0.4375,-0.1250,0.99414062500000,-0.00543212890625,-0.04840087890625,-0.09655761718750
1722925442.69,0,0,0,0,0.0900,-0.0100,-0.2300,1.3750,3.8750,0.0000,0.99414062500000,-0.00531005859375,-0.04809570312500,-0.09655761718750
1722925442.70,0,0,0,0,-0.0100,0.0100,-0.3500,1.9375,5.1250,-0.0625,0.99420166015625,-0.00506591796875,-0.04766845703125,-0.09655761718750
1722925442.71,0,0,0,0,0.0000,0.0300,-0.1900,0.9375,2.5625,-0.1250,0.99420166015625,-0.00494384765625,-0.04742431640625,-0.09655761718750
1722925442.72,0,0,0,0,0.0100,0.0100,0.0300,-0.6250,-1.3750,-0.0625,0.99420166015625,-0.00500488281250,-0.04754638671875,-0.09655761718750
1722925442.73,0,0,0,0,0.0300,-0.0200,0.0000,-1.5000,-3.7500,0.0000,0.99414062500000,-0.00518798828125,-0.04785156250000,-0.09655761718750
1722925442.74,0,0,0,0,0.0700,-0.0300,-0.4000,-0.9375,-2.3125,0.0000,0.99414062500000,-0.00531005859375,-0.04809570312500,-0.09655761718750
1722925442.75,0,0,0,0,0.0600,-0.0200,-0.4100,0.1875,0.6875,0.0000,0.99414062500000,-0.00531005859375,-0.04803466796875,-0.09655761718750
1722925442.76,0,0,0,0,0.0700,-0.0100,-0.3000,1.1250,3.0625,-0.0625,0.99414062500000,-0.00518798828125,-0.04772949218750,-0.09655761718750
1722925442.77,0,0,0,0,0.0600,-0.0100,-0.1800,0.6250,2.0625,-0.0625,0.99420166015625,-0.00512695312500,-0.04760742187500,-0.09655761718750
1722925442.78,0,0,0,0,0.0400,-0.0100,-0.0700,-0.6875,-1.6250,-0.0625,0.99414062500000,-0.00518798828125,-0.04772949218750,-0.09655761718750
1722925442.79,0,0,0,0,0.0600,-0.0200,-0.1400,-2.0625,-5.1250,-0.0625,0.99414062500000,-0.00543212890625,-0.04815673828125,-0.09655761718750
1722925442.80,0,0,0,0,0.0800,-0.0300,-0.2600,-2.0000,-5.2500,-0.1250,0.99414062500000,-0.00561523437500,-0.04858398437500,-0.09655761718750
1722925442.81,0,0,0,0,0.0700,-0.0300,-0.3500,-0.3750,-1.0000,0.0000,0.99414062500000,-0.00561523437500,-0.04870605468750,-0.09655761718750
1722925442.82,0,0,0,0,0.0200,0.0000,-0.2600,1.6875,4.9375,0.0000,0.99414062500000,-0.00543212890625,-0.04827880859375,-0.09655761718750
1722925442.83,0,0,0,0,0.0000,-0.0100,-0.1400,3.0000,8.1875,0.0000,0.99420166015625,-0.00512695312500,-0.04760742187500,-0.09655761718750
1722925442.84,0,0,0,0,-0.0100,-0.0100,-0.1000,2.5625,6.7500,0.0000,0.99420166015625,-0.00482177734375,-0.04705810546875,-0.09655761718750
1722925442.85,0,0,0,0,-0.0100,0.0000,-0.1900,0.3125,1.0625,0.0000,0.99420166015625,-0.00482177734375,-0.04693603515625,-0.09655761718750
1722925442.86,0,0,0,0,0.0000,0.0000,-0.2800,-1.9375,-5.2500,-0.0625,0.99420166015625,-0.00506591796875,-0.04736328125000,-0.09655761718750
1722925442.87,0,0,0,0,0.0400,-0.0200,-0.3300,-3.0000,-7.8125,-0.1250,0.99414062500000,-0.00537109375000,-0.04803466796875,-0.09655761718750
1722925442.88,0,0,0,0,0.0700,-0.0200,-0.2900,-2.3750,-5.6875,-0.0625,0.99414062500000,-0.00561523437500,-0.04852294921875,-0.09655761718750
1722925442.89,0,0,0,0,0.0800,-0.0100,-0.1500,-0.4375,-0.9375,0.0000,0.99414062500000,-0.00561523437500,-0.04858398437500,-0.09655761718750
1722925442.90,0,0,0,0,0.0600,-0.0300,-0.1400,1.1875,3.0000,0.0000,0.99414062500000,-0.00549316406250,-0.04833984375000,-0.09655761718750
1722925442.91,0,0,0,0,0.0100,-0.0300,-0.1600,1.4375,4.0625,-0.0625,0.99414062500000,-0.00537109375000,-0.04803466796875,-0.09655761718750
1722925442.92,0,0,0,0,0.0100,0.0000,-0.2000,0.6875,1.8125,0.0000,0.99414062500000,-0.00524902343750,-0.04785156250000,-0.09655761718750
1722925442.93,0,0,0,0,0.0400,-0.0200,-0.2700,-0.2500,-0.9375,0.0000,0.99414062500000,-0.00524902343750,-0.04797363281250,-0.09655761718750
1722925442.94,0,0,0,0,0.0600,-0.0300,-0.2400,-0.6875,-1.7500,-0.0625,0.99414062500000,-0.00537109375000,-0.04809570312500,-0.09655761718750
1722925442.95,0,0,0,0,0.0600,-0.0100,-0.2100,0.0000,0.1250,0.0000,0.99414062500000,-0.00537109375000,-0.04809570312500,-0.09655761718750
1722925442.96,0,0,0,0,0.0500,-0.0200,-0.1700,0.9375,2.5000,-0.0625,0.99414062500000,-0.00524902343750,-0.04791259765625,-0.09655761718750
1722925442.97,0,0,0,0,0.0000,0.0000,-0.2000,1.2500,3.1250,-0.1250,0.99420166015625,-0.00512695312500,-0.04760742187500,-0.09655761718750
1722925442.98,0,0,0,0,-0.0100,0.0000,-0.2200,0.3125,0.8125,0.0000,0.99420166015625,-0.00512695312500,-0.04754638671875,-0.09655761718750
1722925442.99,0,0,0,0,0.0000,0.0000,-0.2300,-1.1250,-2.6875,-0.1875,0.99414062500000,-0.00524902343750,-0.04779052734375,-0.09655761718750
1722925443.00,0,0,0,0,0.0300,-0.0200,-0.2100,-2.1875,-5.4375,0.0000,0.99414062500000,-0.00549316406250,-0.04827880859375,-0.09655761718750
1722925443.01,0,0,0,0,0.0800,-0.0300,-0.1700,-1.7500,-4.6250,-0.0625,0.99414062500000,-0.00567626953125,-0.04864501953125,-0.09655761718750
1722925443.02,0,0,0,0,0.0700,-0.0200,-0.1800,-0.2500,-0.6875,-0.1250,0.99414062500000,-0.00567626953125,-0.04870605468750,-0.09655761718750
1722925443.03,0,0,0,0,0.0800,-0.0300,-0.2200,1.5625,4.0000,0.0000,0.99414062500000,-0.00549316406250,-0.04840087890625,-0.09655761718750
1722925443.04,0,0,0,0,0.0300,0.0000,-0.2500,2.3125,6.2500,0.0000,0.99414062500000,-0.00524902343750,-0.04785156250000,-0.09655761718750
1722925443.05,0,0,0,0,0.0000,-0.0100,-0.2400,1.5000,4.1250,0.0000,0.99420166015625,-0.00506591796875,-0.04748535156250,-0.09655761718750
1722925443.06,0,0,0,0,0.0000,0.0000,-0.2200,-0.1250,-0.2500,-0.0625,0.99420166015625,-0.00506591796875,-0.04754638671875,-0.09655761718750
1722925443.07,0,0,0,0,0.0100,0.0000,-0.1500,-1.6875,-4.3125,-0.1250,0.99414062500000,-0.00524902343750,-0.04785156250000,-0.09655761718750
1722925443.08,0,0,0,0,0.0900,0.0000,-0.2100,-2.0625,-5.1875,-0.0625,0.99414062500000,-0.00549316406250,-0.04833984375000,-0.09655761718750
1722925443.09,0,0,0,0,0.0600,-0.0200,-0.2400,-0.9375,-2.3125,0.0000,0.99414062500000,-0.00561523437500,-0.04852294921875,-0.09655761718750
1722925443.10,0,0,0,0,0.0300,0.0000,-0.2900,0.5625,1.5000,0.0000,0.99414062500000,-0.00555419921875,-0.04840087890625,-0.09655761718750
1722925443.11,0,0,0,0,0.0300,-0.0200,-0.2700,1.3750,4.0625,0.0000,0.99414062500000,-0.00537109375000,-0.04803466796875,-0.09655761718750
1722925443.12,0,0,0,0,0.0000,0.0000,-0.1500,1.1250,3.2500,0.0000,0.99414062500000,-0.00524902343750,-0.04779052734375,-0.09655761718750
1722925443.13,0,0,0,0,-0.0100,-0.0200,-0.1600,0.0000,0.0000,0.0000,0.99414062500000,-0.00524902343750,-0.04779052734375,-0.09655761718750
1722925443.14,0,0,0,0,0.0100,-0.0300,-0.1800,-1.0625,-2.6875,0.0000,0.99414062500000,-0.00537109375000,-0.04803466796875,-0.09655761718750
1722925443.15,0,0,0,0,0.0500,-0.0400,-0.2300,-1.1250,-2.9375,-0.0625,0.99414062500000,-0.00549316406250,-0.04827880859375,-0.09655761718750
1722925443.16,0,0,0,0,0.0900,-0.0300,-0.2700,-0.3125,-0.8125,0.0000,0.99414062500000,-0.00549316406250,-0.04833984375000,-0.09655761718750
1722925443.17,0,0,0,0,0.0700,-0.0400,-0.2200,0.6250,2.0625,0.0000,0.99414062500000,-0.00543212890625,-0.04815673828125,-0.09655761718750
1722925443.18,0,0,0,0,0.0500,0.0000,-0.2000,1.1250,2.9375,0.0000,0.99414062500000,-0.00531005859375,-0.04791259765625,-0.09655761718750
1722925443.19,0,0,0,0,0.0000,0.0100,-0.1700,0.4375,0.8750,-0.0625,0.99414062500000,-0.00531005859375,-0.04785156250000,-0.09655761718750
1722925443.20,0,0,0,0,0.0200,0.0200,-0.2300,-0.6875,-1.8750,-0.1875,0.99414062500000,-0.00537109375000,-0.04803466796875,-0.09655761718750
1722925443.21,0,0,0,0,0.0400,0.0100,-0.2500,-1.3750,-3.8750,-0.1250,0.99414062500000,-0.00555419921875,-0.04833984375000,-0.09655761718750
1722925443.22,0,0,0,0,0.0400,0.0100,-0.2400,-0.9375,-2.2500,-0.1250,0.99414062500000,-0.00567626953125,-0.04852294921875,-0.09655761718750
1722925443.23,0,0,0,0,0.0400,0.0000,-0.2300,0.4375,1.3125,-0.1250,0.99414062500000,-0.00561523437500,-0.04840087890625,-0.09655761718750
1722925443.24,0,0,0,0,0.0200,0.0000,-0.1800,1.7500,4.6875,-0.0625,0.99414062500000,-0.00543212890625,-0.04803466796875,-0.09655761718750
1722925443.25,0,0,0,0,0.0000,0.0000,-0.1600,1.8750,5.1875,-0.2500,0.99420166015625,-0.00524902343750,-0.04760742187500,-0.09655761718750
1722925443.26,0,0,0,0,-0.0100,0.0000,-0.1900,0.8125,2.3750,-0.1250,0.99420166015625,-0.00512695312500,-0.04742431640625,-0.09655761718750
1722925443.27,0,0,0,0,0.0100,-0.0200,-0.2000,-1.1875,-2.6250,0.0000,0.99420166015625,-0.00524902343750,-0.04760742187500,-0.09655761718750
1722925443.28,0,0,0,0,0.0500,-0.0500,-0.2500,-2.3750,-6.0625,0.0000,0.99414062500000,-0.00555419921875,-0.04815673828125,-0.09655761718750
1722925443.29,0,0,0,0,0.0900,-0.0600,-0.2600,-2.3750,-5.6875,0.0000,0.99414062500000,-0.00579833984375,-0.04864501953125,-0.09661865234375
