timestamp,calib_mag,calib_accel,calib_gyro,calib_sys,lacc_x,lacc_y,lacc_z,gyro_x,gyro_y,gyro_z,quat_w,quat_x,quat_y,quat_z
1722925453.75,0,0,0,0,0.0000,0.0000,0.0000,0.0000,0.0000,0.0000,0.00000000000000,0.00000000000000,0.00000000000000,0.00000000000000
1722925453.75,0,0,0,0,0.0000,0.0000,0.0000,0.6250,-0.6250,0.0000,0.00000000000000,0.00000000000000,0.00000000000000,0.00000000000000
1722925453.78,0,0,0,0,0.0000,0.0000,0.0000,1.9375,-1.5625,-0.0625,0.00000000000000,0.00000000000000,0.00000000000000,0.00000000000000
1722925453.78,0,0,0,0,0.0000,0.0000,0.0000,0.5625,-0.5625,0.0000,0.00000000000000,0.00000000000000,0.00000000000000,0.00000000000000
1722925453.79,0,0,0,0,0.0000,0.0000,0.0000,-0.5000,0.5625,0.0000,0.00000000000000,0.00000000000000,0.00000000000000,0.00000000000000
1722925453.80,0,0,0,0,0.0000,0.0000,0.0000,-1.4375,1.0000,0.0625,0.00000000000000,0.00000000000000,0.00000000000000,0.00000000000000
1722925453.81,0,0,0,0,-0.1500,1.0300,-0.2600,-1.5625,0.7500,0.0000,1.00000000000000,0.00024414062500,-0.00024414062500,0.00000000000000
1722925453.82,0,0,0,0,-0.1300,1.0100,-0.2000,-1.3125,0.5625,0.0000,1.00000000000000,0.00012207031250,-0.00018310546875,0.00000000000000
1722925453.83,0,0,0,0,-0.1400,1.0100,-0.2100,-1.1250,0.5000,0.0000,1.00000000000000,0.00006103515625,-0.00018310546875,0.00000000000000
1722925453.84,0,0,0,0,-0.1700,0.9700,-0.2000,-0.5625,0.1875,0.0000,1.00000000000000,0.00000000000000,-0.00018310546875,0.00000000000000
1722925453.85,0,0,0,0,-0.1500,0.9700,-0.2200,-0.0625,-0.1250,0.0000,1.00000000000000,0.00000000000000,-0.00018310546875,0.00000000000000
1722925453.86,0,0,0,0,-0.1800,0.9600,-0.2300,0.1875,-0.6250,0.0000,1.00000000000000,0.00000000000000,-0.00024414062500,0.00000000000000
1722925453.87,0,0,0,0,0.0100,-0.0200,-0.1900,0.7500,-0.7500,-0.1250,0.99865722656250,0.05072021484375,0.00817871093750,0.00000000000000
1722925453.88,0,0,0,0,-0.0100,-0.0100,-0.1900,0.6250,-0.5625,-0.1250,0.99865722656250,0.05078125000000,0.00811767578125,0.00000000000000
1722925453.89,0,0,0,0,-0.0100,-0.0300,-0.1600,0.1250,-0.3750,-0.0625,0.99865722656250,0.05084228515625,0.00811767578125,0.00000000000000
1722925453.90,0,0,0,0,-0.0100,-0.0200,-0.1700,-0.3750,0.1250,0.0000,0.99865722656250,0.05084228515625,0.00811767578125,0.00000000000000
1722925453.91,0,0,0,0,0.0000,0.0000,-0.2100,-0.8125,0.5000,0.0000,0.99865722656250,0.05078125000000,0.00811767578125,0.00000000000000
1722925453.92,0,0,0,0,-0.0200,0.0000,-0.1900,-0.8125,0.3750,0.0000,0.99865722656250,0.05072021484375,0.00811767578125,0.00000000000000
1722925453.93,0,0,0,0,-0.0100,0.0100,-0.1800,-0.4375,0.0625,0.0000,0.99865722656250,0.05072021484375,0.00811767578125,0.00000000000000
1722925453.94,0,0,0,0,0.0000,0.0100,-0.1900,0.0000,-0.3125,0.1250,0.99865722656250,0.05072021484375,0.00811767578125,0.00000000000000
1722925453.95,0,0,0,0,0.0000,0.0500,-0.1600,0.1875,-0.5625,0.0000,0.99865722656250,0.05072021484375,0.00805664062500,0.00000000000000
1722925453.96,0,0,0,0,0.0200,0.0400,-0.1900,0.1250,-0.3750,0.0000,0.99865722656250,0.05072021484375,0.00805664062500,0.00000000000000
1722925453.97,0,0,0,0,0.0300,0.0200,-0.1900,0.0625,-0.3750,0.0625,0.99865722656250,0.05078125000000,0.00805664062500,0.00000000000000
1722925453.98,0,0,0,0,0.0100,0.0100,-0.2000,0.0625,-0.2500,0.0000,0.99865722656250,0.05078125000000,0.00805664062500,0.00000000000000
1722925453.99,0,0,0,0,0.0200,0.0300,-0.1800,-0.1250,0.0000,-0.0625,0.99865722656250,0.05078125000000,0.00805664062500,0.00000000000000
1722925454.00,0,0,0,0,0.0000,0.0100,-0.1800,-0.3125,0.1250,0.0000,0.99865722656250,0.05078125000000,0.00805664062500,0.00000000000000
1722925454.01,0,0,0,0,0.0000,0.0000,-0.1400,-0.6875,0.2500,-0.1875,0.99865722656250,0.05072021484375,0.00805664062500,0.00000000000000
1722925454.02,0,0,0,0,-0.0100,0.0000,-0.1900,-0.8750,0.5000,0.0000,0.99865722656250,0.05065917968750,0.00805664062500,0.00000000000000
1722925454.03,0,0,0,0,-0.0300,-0.0100,-0.1700,-0.6875,0.5000,0.0000,0.99865722656250,0.05059814453125,0.00805664062500,0.00000000000000
1722925454.04,0,0,0,0,0.0000,-0.0100,-0.2000,-0.3125,-0.0625,0.0000,0.99865722656250,0.05059814453125,0.00811767578125,0.00000000000000
1722925454.05,0,0,0,0,-0.0200,-0.0200,-0.1800,0.0000,-0.3750,0.0000,0.99865722656250,0.05065917968750,0.00811767578125,0.00000000000000
1722925454.09,0,0,0,0,0.0000,0.0000,-0.1900,0.0000,-0.2500,0.0000,0.99865722656250,0.05065917968750,0.00811767578125,0.00000000000000
1722925454.10,0,0,0,0,0.0000,0.0000,-0.1900,-0.2500,-0.0625,0.0000,0.99865722656250,0.05065917968750,0.00811767578125,0.00000000000000
1722925454.11,0,0,0,0,0.0200,0.0000,-0.1900,-0.2500,0.0000,0.0000,0.99865722656250,0.05065917968750,0.00811767578125,0.00000000000000
1722925454.12,0,0,0,0,0.0100,0.0200,-0.2300,-0.3750,0.0000,0.0000,0.99865722656250,0.05065917968750,0.00811767578125,0.00000000000000
1722925454.13,0,0,0,0,0.0000,0.0100,-0.2200,-0.4375,0.0000,0.0000,0.99865722656250,0.05072021484375,0.00811767578125,0.00000000000000
1722925454.14,0,0,0,0,0.0100,0.0000,-0.2000,-0.2500,0.0000,0.0000,0.99865722656250,0.05072021484375,0.00811767578125,0.00000000000000
1722925454.15,0,0,0,0,0.0000,0.0100,-0.1700,0.0000,-0.1250,-0.0625,0.99865722656250,0.05072021484375,0.00811767578125,0.00000000000000
1722925454.16,0,0,0,0,0.0000,0.0100,-0.1600,0.0000,-0.3125,0.0000,0.99865722656250,0.05072021484375,0.00811767578125,0.00000000000000
1722925454.17,0,0,0,0,0.0100,0.0100,-0.1900,-0.2500,0.0000,0.0000,0.99865722656250,0.05072021484375,0.00811767578125,0.00000000000000
1722925454.18,0,0,0,0,0.0000,-0.0100,-0.1900,-0.1875,0.1250,0.0000,0.99865722656250,0.05072021484375,0.00811767578125,0.00000000000000
1722925454.19,0,0,0,0,-0.0100,-0.0200,-0.1900,-0.1250,0.0625,0.0000,0.99865722656250,0.05072021484375,0.00811767578125,0.00000000000000
1722925454.20,0,0,0,0,-0.0100,0.0000,-0.1700,0.0625,-0.1875,0.0000,0.99865722656250,0.05072021484375,0.00811767578125,0.00000000000000
1722925454.21,0,0,0,0,0.0000,0.0000,-0.1700,0.0625,-0.3750,0.0000,0.99865722656250,0.05078125000000,0.00811767578125,0.00000000000000
1722925454.22,0,0,0,0,-0.0100,-0.0100,-0.1800,-0.1250,0.0000,0.0000,0.99865722656250,0.05078125000000,0.00811767578125,0.00000000000000
1722925454.23,0,0,0,0,-0.0100,0.0000,-0.1800,-0.1875,0.0000,0.0000,0.99865722656250,0.05078125000000,0.00811767578125,0.00000000000000
1722925454.24,0,0,0,0,0.0100,-0.0200,-0.1600,-0.3750,-0.0625,0.1250,0.99865722656250,0.05078125000000,0.00811767578125,0.00000000000000
1722925454.25,0,0,0,0,0.0200,0.0000,-0.1600,-0.2500,-0.0625,0.1875,0.99865722656250,0.05078125000000,0.00811767578125,0.00000000000000
1722925454.26,0,0,0,0,0.0200,-0.0100,-0.1700,-0.1875,0.0000,-0.0625,0.99865722656250,0.05078125000000,0.00811767578125,0.00000000000000
1722925454.27,0,0,0,0,0.0000,0.0000,-0.2100,0.0000,0.0000,0.0000,0.99865722656250,0.05078125000000,0.00811767578125,0.00000000000000
1722925454.28,0,0,0,0,0.0100,0.0000,-0.1700,-0.1250,-0.1250,-0.0625,0.99865722656250,0.05078125000000,0.00811767578125,0.00000000000000
1722925454.29,0,0,0,0,0.0000,0.0000,-0.1900,0.0000,-0.1875,0.0000,0.99865722656250,0.05078125000000,0.00811767578125,0.00000000000000
1722925454.30,0,0,0,0,0.0000,0.0100,-0.2300,0.0000,-0.1875,-0.0625,0.99865722656250,0.05078125000000,0.00811767578125,0.00000000000000
1722925454.31,0,0,0,0,0.0000,0.0000,-0.2100,0.3750,-0.5625,-0.1250,0.99865722656250,0.05084228515625,0.00805664062500,0.00000000000000
1722925454.32,0,0,0,0,-0.0100,0.0000,-0.2000,0.4375,-0.6875,-0.0625,0.99865722656250,0.05084228515625,0.00799560546875,0.00000000000000
1722925454.33,0,0,0,0,0.0000,0.0200,-0.1500,-0.1875,-0.2500,0.0000,0.99865722656250,0.05084228515625,0.00799560546875,0.00000000000000
1722925454.34,0,0,0,0,-0.0300,0.0000,-0.1500,-1.4375,0.8750,0.0000,0.99865722656250,0.05072021484375,0.00811767578125,0.00000000000000
1722925454.35,0,0,0,0,-0.0200,-0.0100,-0.2000,-1.8750,1.4375,0.0000,0.99871826171875,0.05053710937500,0.00823974609375,0.00000000000000
1722925454.36,0,0,0,0,-0.0300,-0.0400,-0.2200,-0.9375,0.6875,0.0000,0.99871826171875,0.05047607421875,0.00830078125000,0.00000000000000
1722925454.37,0,0,0,0,-0.0300,-0.0500,-0.2000,0.2500,-0.6875,-0.0625,0.99871826171875,0.05047607421875,0.00823974609375,0.00000000000000
1722925454.40,0,0,0,0,-0.0300,-0.0100,-0.1500,1.0625,-1.1250,0.0000,0.99865722656250,0.05065917968750,0.00799560546875,0.00000000000000
1722925454.40,0,0,0,0,-0.0200,0.0000,-0.1400,-0.1250,-0.1250,0.0000,0.99865722656250,0.05065917968750,0.00799560546875,0.00000000000000
1722925454.41,0,0,0,0,0.0000,-0.0200,-0.1900,-1.2500,0.5000,0.3750,0.99871826171875,0.05059814453125,0.00799560546875,0.00000000000000
1722925454.42,0,0,0,0,0.0200,-0.0100,-0.2300,-1.2500,0.5000,0.1875,0.99871826171875,0.05047607421875,0.00799560546875,0.00000000000000
1722925454.43,0,0,0,0,0.0000,0.0000,-0.2300,-0.0625,0.0000,0.0000,0.99871826171875,0.05047607421875,0.00799560546875,0.00000000000000
1722925454.44,0,0,0,0,0.0000,0.0400,-0.1800,0.7500,-1.0625,-0.0625,0.99871826171875,0.05053710937500,0.00793457031250,0.00000000000000
1722925454.45,0,0,0,0,0.0000,0.0200,-0.1600,0.8750,-1.1250,0.1250,0.99865722656250,0.05065917968750,0.00781250000000,-0.00006103515625
1722925454.46,0,0,0,0,0.0200,0.0500,-0.1600,0.0625,-0.1875,-0.0625,0.99865722656250,0.05065917968750,0.00781250000000,-0.00006103515625
1722925454.47,0,0,0,0,-0.0100,0.0100,-0.2200,-0.5625,0.5000,-0.0625,0.99871826171875,0.05059814453125,0.00781250000000,-0.00006103515625
1722925454.48,0,0,0,0,-0.0100,0.0200,-0.2100,-0.6250,0.5000,0.0000,0.99871826171875,0.05053710937500,0.00781250000000,-0.00006103515625
1722925454.49,0,0,0,0,0.0000,0.0100,-0.2200,-0.1250,-0.1250,0.0000,0.99871826171875,0.05053710937500,0.00781250000000,-0.00006103515625
1722925454.50,0,0,0,0,-0.0200,0.0000,-0.1900,0.1250,-0.4375,-0.0625,0.99871826171875,0.05053710937500,0.00781250000000,-0.00006103515625
1722925454.51,0,0,0,0,-0.0200,0.0100,-0.1900,0.1250,-0.2500,-0.1250,0.99871826171875,0.05059814453125,0.00781250000000,-0.00006103515625
1722925454.52,0,0,0,0,-0.0100,0.0000,-0.2000,-0.3125,0.0000,0.0000,0.99871826171875,0.05059814453125,0.00781250000000,-0.00006103515625
1722925454.53,0,0,0,0,-0.0100,-0.0300,-0.1800,-1.0000,0.3750,0.2500,0.99871826171875,0.05047607421875,0.00781250000000,-0.00006103515625
1722925454.54,0,0,0,0,0.0000,-0.0600,-0.1800,-1.0625,0.5625,0.0000,0.99871826171875,0.05041503906250,0.00787353515625,0.00000000000000
1722925454.55,0,0,0,0,-0.0200,-0.0400,-0.2100,-0.5000,0.1250,0.0000,0.99871826171875,0.05041503906250,0.00787353515625,0.00000000000000
1722925454.56,0,0,0,0,0.0000,-0.0300,-0.1600,0.0000,-0.1875,0.0000,0.99871826171875,0.05041503906250,0.00787353515625,0.00000000000000
1722925454.57,0,0,0,0,0.0000,-0.0300,-0.1700,0.0625,-0.4375,0.0000,0.99871826171875,0.05041503906250,0.00787353515625,0.00000000000000
1722925454.58,0,0,0,0,0.0000,-0.0200,-0.1600,-0.0625,-0.0625,-0.1250,0.99871826171875,0.05041503906250,0.00787353515625,0.00000000000000
1722925454.59,0,0,0,0,-0.0300,-0.0100,-0.1800,-0.3125,0.0625,0.0000,0.99871826171875,0.05041503906250,0.00787353515625,0.00000000000000
1722925454.60,0,0,0,0,-0.0400,0.0000,-0.1900,0.0000,0.0000,-0.0625,0.99871826171875,0.05041503906250,0.00787353515625,0.00000000000000
1722925454.61,0,0,0,0,-0.0300,0.0100,-0.2000,0.1250,-0.5625,-0.0625,0.99871826171875,0.05041503906250,0.00787353515625,-0.00006103515625
1722925454.62,0,0,0,0,-0.0100,0.0200,-0.2300,0.6250,-0.8125,-0.0625,0.99871826171875,0.05047607421875,0.00775146484375,-0.00006103515625
1722925454.63,0,0,0,0,-0.0200,0.0500,-0.1900,0.5000,-0.8750,0.0000,0.99871826171875,0.05047607421875,0.00769042968750,-0.00006103515625
1722925454.64,0,0,0,0,0.0100,0.0400,-0.1900,0.0625,-0.5625,0.0000,0.99871826171875,0.05047607421875,0.00762939453125,-0.00006103515625
1722925454.65,0,0,0,0,0.0200,0.0100,-0.1800,-0.5625,0.2500,0.1250,0.99871826171875,0.05047607421875,0.00762939453125,-0.00006103515625
1722925454.66,0,0,0,0,0.0000,0.0000,-0.1900,-1.0625,0.6250,0.0000,0.99871826171875,0.05035400390625,0.00769042968750,-0.00006103515625
1722925454.67,0,0,0,0,0.0000,0.0100,-0.1800,-1.0625,0.6250,-0.0625,0.99871826171875,0.05029296875000,0.00775146484375,-0.00006103515625
1722925454.68,0,0,0,0,0.0000,0.0000,-0.1900,-0.7500,0.2500,0.0625,0.99871826171875,0.05023193359375,0.00775146484375,-0.00006103515625
1722925454.71,0,0,0,0,0.0000,0.0000,-0.1600,0.0000,-0.2500,0.0000,0.99871826171875,0.05023193359375,0.00775146484375,-0.00006103515625
1722925454.71,0,0,0,0,0.0000,-0.0200,-0.1800,0.1250,-0.1250,-0.1250,0.99871826171875,0.05023193359375,0.00775146484375,-0.00006103515625
1722925454.72,0,0,0,0,-0.0300,-0.0400,-0.1900,0.0625,-0.0625,-0.0625,0.99871826171875,0.05023193359375,0.00775146484375,-0.00006103515625
1722925454.73,0,0,0,0,-0.0600,-0.0100,-0.1900,0.0625,-0.3125,-0.0625,0.99871826171875,0.05023193359375,0.00775146484375,-0.00006103515625
1722925454.74,0,0,0,0,-0.0600,0.0000,-0.1800,0.0000,-0.1250,0.0000,0.99871826171875,0.05023193359375,0.00775146484375,-0.00006103515625
1722925454.75,0,0,0,0,-0.0600,0.0000,-0.1800,-0.1875,-0.1250,-0.0625,0.99871826171875,0.05023193359375,0.00781250000000,-0.00006103515625
1722925454.76,0,0,0,0,-0.0400,-0.0100,-0.2000,-0.3750,0.0000,0.0000,0.99871826171875,0.05023193359375,0.00781250000000,-0.00006103515625
1722925454.77,0,0,0,0,-0.0400,0.0000,-0.1800,-0.6250,0.0625,0.0625,0.99871826171875,0.05017089843750,0.00781250000000,-0.00006103515625
1722925454.78,0,0,0,0,-0.0200,0.0000,-0.2100,-0.3750,0.0625,0.0000,0.99871826171875,0.05017089843750,0.00781250000000,-0.00006103515625
1722925454.79,0,0,0,0,0.0000,0.0000,-0.1700,-0.3750,0.0000,0.1250,0.99871826171875,0.05017089843750,0.00781250000000,-0.00006103515625
1722925454.80,0,0,0,0,0.0300,0.0200,-0.1800,0.0000,-0.3750,0.0000,0.99871826171875,0.05017089843750,0.00781250000000,-0.00006103515625
1722925454.81,0,0,0,0,0.0300,0.0000,-0.1800,0.2500,-0.5625,0.0000,0.99871826171875,0.05017089843750,0.00775146484375,-0.00006103515625
1722925454.82,0,0,0,0,0.0300,0.0200,-0.2100,0.2500,-0.5000,0.0000,0.99871826171875,0.05017089843750,0.00775146484375,-0.00006103515625
1722925454.83,0,0,0,0,0.0000,0.0500,-0.1600,0.3125,-0.1875,0.0000,0.99871826171875,0.05023193359375,0.00775146484375,-0.00006103515625
1722925454.84,0,0,0,0,0.0000,0.0300,-0.2000,0.0000,0.0000,-0.0625,0.99871826171875,0.05023193359375,0.00775146484375,-0.00006103515625
1722925454.85,0,0,0,0,-0.0200,0.0200,-0.2000,-0.1250,0.0000,-0.0625,0.99871826171875,0.05023193359375,0.00775146484375,-0.00006103515625
1722925454.86,0,0,0,0,-0.0400,0.0000,-0.1900,-0.1250,0.0000,-0.1875,0.99871826171875,0.05023193359375,0.00775146484375,-0.00006103515625
1722925454.87,0,0,0,0,-0.0400,0.0000,-0.1700,-0.3125,0.1250,0.0000,0.99871826171875,0.05023193359375,0.00775146484375,-0.00006103515625
1722925454.88,0,0,0,0,-0.0300,0.0000,-0.1800,-0.2500,0.0000,0.0625,0.99871826171875,0.05023193359375,0.00775146484375,-0.00006103515625
1722925454.89,0,0,0,0,-0.0100,-0.0200,-0.1800,-0.6250,0.0000,0.0625,0.99871826171875,0.05017089843750,0.00775146484375,-0.00006103515625
1722925454.90,0,0,0,0,-0.0100,-0.0200,-0.1600,-0.6250,0.1875,0.1875,0.99871826171875,0.05010986328125,0.00775146484375,-0.00006103515625
1722925454.91,0,0,0,0,0.0000,-0.0400,-0.1500,-0.6875,0.1875,0.0000,0.99871826171875,0.05004882812500,0.00775146484375,-0.00006103515625
1722925454.92,0,0,0,0,-0.0100,-0.0300,-0.1600,-0.2500,0.0625,0.0000,0.99871826171875,0.05004882812500,0.00775146484375,-0.00006103515625
1722925454.93,0,0,0,0,-0.0200,-0.0100,-0.1700,-0.0625,-0.0625,-0.0625,0.99871826171875,0.05004882812500,0.00775146484375,-0.00006103515625
1722925454.94,0,0,0,0,-0.0200,0.0000,-0.1700,0.3750,-0.1875,-0.1250,0.99871826171875,0.05004882812500,0.00775146484375,-0.00006103515625
1722925454.95,0,0,0,0,-0.0500,0.0100,-0.1800,0.7500,-0.6250,-0.1875,0.99871826171875,0.05010986328125,0.00769042968750,-0.00006103515625
1722925454.96,0,0,0,0,-0.0300,0.0400,-0.1900,0.6875,-0.6250,-0.0625,0.99871826171875,0.05017089843750,0.00762939453125,-0.00006103515625
1722925454.97,0,0,0,0,-0.0400,0.0400,-0.1900,0.5000,-0.6875,0.0000,0.99871826171875,0.05017089843750,0.00756835937500,-0.00006103515625
1722925454.98,0,0,0,0,-0.0100,0.0500,-0.1900,0.0000,-0.4375,0.0000,0.99871826171875,0.05017089843750,0.00756835937500,-0.00006103515625
1722925454.99,0,0,0,0,-0.0100,0.0300,-0.1600,-0.1875,-0.0625,0.0000,0.99871826171875,0.05017089843750,0.00756835937500,-0.00006103515625
1722925455.02,0,0,0,0,0.0000,0.0100,-0.2000,-1.1250,0.5625,0.1250,0.99871826171875,0.05004882812500,0.00762939453125,-0.00006103515625
1722925455.02,0,0,0,0,0.0100,0.0000,-0.2000,-1.1250,0.8125,0.0625,0.99871826171875,0.04992675781250,0.00769042968750,-0.00006103515625
1722925455.03,0,0,0,0,-0.0100,-0.0200,-0.1700,-0.7500,0.4375,-0.0625,0.99871826171875,0.04986572265625,0.00775146484375,-0.00006103515625
1722925455.04,0,0,0,0,-0.0100,-0.0200,-0.1700,-0.0625,-0.1875,0.0625,0.99871826171875,0.04986572265625,0.00775146484375,-0.00006103515625
1722925455.05,0,0,0,0,-0.0200,-0.0100,-0.1800,0.2500,-0.3125,0.0000,0.99871826171875,0.04986572265625,0.00775146484375,-0.00006103515625
1722925455.06,0,0,0,0,-0.0300,-0.0100,-0.1700,0.6250,-0.5625,-0.1250,0.99871826171875,0.04992675781250,0.00769042968750,-0.00006103515625
1722925455.07,0,0,0,0,-0.0500,0.0000,-0.1900,0.3750,-0.5625,-0.1875,0.99871826171875,0.04992675781250,0.00762939453125,-0.00006103515625
1722925455.08,0,0,0,0,-0.0400,0.0000,-0.2100,0.1875,-0.3125,0.0000,0.99871826171875,0.04992675781250,0.00762939453125,-0.00006103515625
1722925455.09,0,0,0,0,-0.0300,-0.0200,-0.1800,-0.0625,0.0000,0.0000,0.99871826171875,0.04992675781250,0.00762939453125,-0.00006103515625
1722925455.10,0,0,0,0,-0.0200,0.0000,-0.1600,-0.3750,0.0000,0.0000,0.99871826171875,0.04992675781250,0.00762939453125,-0.00006103515625
1722925455.11,0,0,0,0,-0.0400,0.0000,-0.1800,-0.3750,0.0625,0.0625,0.99871826171875,0.04992675781250,0.00762939453125,-0.00006103515625
1722925455.12,0,0,0,0,-0.0100,0.0000,-0.1700,-0.5625,0.0000,0.0000,0.99871826171875,0.04986572265625,0.00762939453125,-0.00006103515625
1722925455.13,0,0,0,0,-0.0200,0.0200,-0.1600,-0.6250,0.1250,0.0625,0.99871826171875,0.04980468750000,0.00762939453125,-0.00006103515625
1722925455.14,0,0,0,0,0.0000,0.0300,-0.1700,-0.6250,0.1875,0.1250,0.99871826171875,0.04974365234375,0.00762939453125,-0.00006103515625
1722925455.15,0,0,0,0,0.0000,0.0000,-0.1800,-0.3750,0.0000,0.0000,0.99871826171875,0.04974365234375,0.00762939453125,-0.00006103515625
1722925455.16,0,0,0,0,0.0100,0.0100,-0.1900,0.0000,-0.2500,0.0000,0.99871826171875,0.04974365234375,0.00762939453125,-0.00006103515625
1722925455.17,0,0,0,0,0.0100,0.0100,-0.2000,0.5625,-0.6875,0.0000,0.99871826171875,0.04980468750000,0.00756835937500,-0.00006103515625
1722925455.18,0,0,0,0,0.0100,0.0000,-0.1700,0.5000,-0.6250,0.0000,0.99871826171875,0.04980468750000,0.00750732421875,-0.00006103515625
1722925455.19,0,0,0,0,0.0000,0.0100,-0.1900,0.0000,-0.1875,0.0000,0.99871826171875,0.04980468750000,0.00750732421875,-0.00006103515625
1722925455.20,0,0,0,0,-0.0200,0.0100,-0.2000,-0.3750,0.1250,0.0000,0.99871826171875,0.04980468750000,0.00750732421875,-0.00006103515625
1722925455.21,0,0,0,0,-0.0300,0.0000,-0.1800,-0.6875,0.3125,0.0000,0.99871826171875,0.04974365234375,0.00750732421875,-0.00006103515625
1722925455.22,0,0,0,0,-0.0300,0.0200,-0.2200,-0.8125,0.4375,0.0000,0.99871826171875,0.04968261718750,0.00750732421875,-0.00006103515625
1722925455.23,0,0,0,0,-0.0400,0.0000,-0.1800,-0.5000,0.1250,-0.0625,0.99871826171875,0.04968261718750,0.00750732421875,-0.00006103515625
1722925455.24,0,0,0,0,-0.0300,0.0000,-0.1800,-0.0625,-0.1875,0.0000,0.99871826171875,0.04968261718750,0.00750732421875,-0.00006103515625
1722925455.25,0,0,0,0,-0.0400,0.0100,-0.1800,0.0000,-0.2500,0.0625,0.99871826171875,0.04968261718750,0.00750732421875,-0.00006103515625
1722925455.26,0,0,0,0,-0.0700,0.0000,-0.1800,0.0625,-0.3125,0.0625,0.99871826171875,0.04968261718750,0.00750732421875,-0.00006103515625
1722925455.27,0,0,0,0,-0.0300,0.0000,-0.2100,-0.0625,-0.2500,0.0000,0.99871826171875,0.04968261718750,0.00750732421875,-0.00006103515625
1722925455.28,0,0,0,0,-0.0300,0.0000,-0.1800,0.0000,-0.3125,0.0000,0.99871826171875,0.04968261718750,0.00750732421875,-0.00006103515625
1722925455.29,0,0,0,0,-0.0100,0.0000,-0.1700,-0.2500,-0.1875,0.0000,0.99871826171875,0.04968261718750,0.00750732421875,-0.00006103515625
1722925455.30,0,0,0,0,-0.0100,-0.0200,-0.1800,-0.3750,0.0625,0.0000,0.99871826171875,0.04968261718750,0.00750732421875,-0.00006103515625
1722925455.31,0,0,0,0,0.0000,-0.0100,-0.1800,-0.6875,0.0000,0.0000,0.99871826171875,0.04962158203125,0.00750732421875,-0.00006103515625
1722925455.32,0,0,0,0,-0.0100,0.0000,-0.1600,-0.5625,0.2500,0.0000,0.99871826171875,0.04962158203125,0.00750732421875,-0.00006103515625
1722925455.34,0,0,0,0,0.0000,0.0200,-0.1800,0.0000,0.0000,0.0000,0.99871826171875,0.04962158203125,0.00750732421875,-0.00006103515625
1722925455.35,0,0,0,0,-0.0100,0.0400,-0.1700,0.3125,-0.3750,0.0000,0.99871826171875,0.04962158203125,0.00750732421875,-0.00006103515625
1722925455.36,0,0,0,0,-0.0200,0.0000,-0.1800,0.5625,-0.4375,-0.1250,0.99871826171875,0.04968261718750,0.00750732421875,-0.00006103515625
1722925455.37,0,0,0,0,-0.0200,0.0400,-0.1900,0.3125,-0.5625,-0.1250,0.99871826171875,0.04968261718750,0.00744628906250,-0.00006103515625
1722925455.38,0,0,0,0,-0.0200,0.0100,-0.2000,0.2500,-0.2500,0.0000,0.99871826171875,0.04968261718750,0.00744628906250,-0.00006103515625
1722925455.39,0,0,0,0,-0.0400,0.0200,-0.2000,0.0000,-0.0625,-0.1875,0.99871826171875,0.04968261718750,0.00744628906250,-0.00006103515625
1722925455.40,0,0,0,0,-0.0500,0.0100,-0.1900,-0.3750,0.0625,0.0000,0.99871826171875,0.04968261718750,0.00750732421875,-0.00006103515625
1722925455.41,0,0,0,0,-0.0200,0.0100,-0.1700,-0.7500,0.1875,-0.0625,0.99871826171875,0.04962158203125,0.00750732421875,-0.00006103515625
1722925455.42,0,0,0,0,-0.0300,0.0000,-0.1700,-0.8750,0.2500,0.0000,0.99871826171875,0.04949951171875,0.00750732421875,-0.00006103515625
1722925455.43,0,0,0,0,-0.0100,0.0000,-0.1600,-0.7500,0.3750,0.0000,0.99871826171875,0.04943847656250,0.00750732421875,-0.00006103515625
1722925455.44,0,0,0,0,-0.0200,-0.0100,-0.1800,-0.5000,0.0625,0.0000,0.99871826171875,0.04943847656250,0.00750732421875,-0.00006103515625
1722925455.45,0,0,0,0,-0.0400,0.0000,-0.1700,-0.3125,0.0000,0.0000,0.99871826171875,0.04943847656250,0.00750732421875,-0.00006103515625
1722925455.46,0,0,0,0,-0.0200,0.0000,-0.1800,0.0625,-0.3125,0.0000,0.99871826171875,0.04943847656250,0.00750732421875,-0.00006103515625
1722925455.47,0,0,0,0,-0.0300,0.0000,-0.2100,0.4375,-0.4375,0.0000,0.99871826171875,0.04943847656250,0.00750732421875,-0.00006103515625
1722925455.48,0,0,0,0,-0.0100,0.0100,-0.1900,0.4375,-0.3750,0.0000,0.99871826171875,0.04943847656250,0.00750732421875,-0.00006103515625
1722925455.49,0,0,0,0,-0.0300,0.0000,-0.1700,0.2500,-0.4375,-0.1875,0.99871826171875,0.04943847656250,0.00750732421875,-0.00006103515625
1722925455.50,0,0,0,0,-0.0200,0.0000,-0.1900,0.0000,-0.1875,0.0000,0.99871826171875,0.04943847656250,0.00750732421875,-0.00006103515625
1722925455.51,0,0,0,0,-0.0300,0.0100,-0.1700,0.0000,0.0000,0.0000,0.99871826171875,0.04943847656250,0.00750732421875,-0.00006103515625
1722925455.52,0,0,0,0,-0.0200,0.0300,-0.2000,-0.5000,0.2500,-0.0625,0.99871826171875,0.04943847656250,0.00750732421875,-0.00006103515625
1722925455.53,0,0,0,0,-0.0100,0.0000,-0.1700,-0.5625,0.0625,0.0000,0.99877929687500,0.04943847656250,0.00750732421875,-0.00006103515625
1722925455.54,0,0,0,0,-0.0300,0.0000,-0.1700,-0.5000,0.0000,0.1250,0.99877929687500,0.04943847656250,0.00750732421875,-0.00006103515625
1722925455.55,0,0,0,0,-0.0300,-0.0100,-0.1800,-0.5000,0.0625,0.0625,0.99877929687500,0.04943847656250,0.00750732421875,-0.00006103515625
1722925455.56,0,0,0,0,0.0000,0.0000,-0.2000,-0.4375,-0.1250,0.0000,0.99877929687500,0.04943847656250,0.00750732421875,-0.00006103515625
1722925455.57,0,0,0,0,0.0000,-0.0100,-0.2000,-0.1250,-0.1875,0.0000,0.99877929687500,0.04943847656250,0.00750732421875,-0.00006103515625
1722925455.58,0,0,0,0,0.0000,0.0000,-0.1700,0.0000,-0.2500,-0.1250,0.99877929687500,0.04943847656250,0.00750732421875,-0.00006103515625
1722925455.59,0,0,0,0,-0.0200,0.0000,-0.1800,0.0625,-0.2500,-0.1250,0.99877929687500,0.04943847656250,0.00750732421875,-0.00006103515625
1722925455.60,0,0,0,0,-0.0200,-0.0100,-0.1700,0.0000,-0.1250,-0.1250,0.99877929687500,0.04943847656250,0.00750732421875,-0.00006103515625
1722925455.61,0,0,0,0,-0.0400,0.0100,-0.2000,-0.0625,0.0000,0.0000,0.99877929687500,0.04943847656250,0.00750732421875,-0.00006103515625
1722925455.62,0,0,0,0,-0.0400,0.0100,-0.2100,-0.1250,0.0000,0.0000,0.99877929687500,0.04943847656250,0.00750732421875,-0.00006103515625
1722925455.63,0,0,0,0,-0.0400,-0.0200,-0.1900,-0.1875,-0.0625,0.0000,0.99877929687500,0.04943847656250,0.00750732421875,-0.00006103515625
1722925455.64,0,0,0,0,-0.0400,-0.0100,-0.1600,-0.1875,-0.0625,0.0625,0.99877929687500,0.04943847656250,0.00750732421875,-0.00006103515625
1722925455.67,0,0,0,0,-0.0100,0.0200,-0.1700,-0.3750,0.0000,-0.0625,0.99877929687500,0.04943847656250,0.00750732421875,-0.00006103515625
1722925455.67,0,0,0,0,-0.0200,-0.0100,-0.1900,-0.0625,0.0625,0.0000,0.99877929687500,0.04943847656250,0.00750732421875,-0.00006103515625
1722925455.68,0,0,0,0,-0.0100,0.0100,-0.1900,0.0000,0.0000,0.0000,0.99877929687500,0.04943847656250,0.00750732421875,-0.00006103515625
1722925455.69,0,0,0,0,-0.0200,0.0100,-0.1900,0.1875,-0.2500,0.0625,0.99877929687500,0.04943847656250,0.00750732421875,-0.00006103515625
1722925455.70,0,0,0,0,0.0000,0.0200,-0.2000,0.0000,-0.2500,-0.0625,0.99877929687500,0.04943847656250,0.00750732421875,-0.00006103515625
1722925455.71,0,0,0,0,-0.0100,0.0300,-0.2000,0.0000,0.0000,0.0000,0.99877929687500,0.04943847656250,0.00750732421875,-0.00006103515625
1722925455.72,0,0,0,0,-0.0200,0.0000,-0.2200,-0.1875,-0.1250,0.0000,0.99877929687500,0.04943847656250,0.00750732421875,-0.00006103515625
1722925455.73,0,0,0,0,-0.0100,0.0200,-0.1800,0.0000,-0.1875,0.0000,0.99877929687500,0.04943847656250,0.00750732421875,-0.00006103515625
1722925455.74,0,0,0,0,0.0000,0.0300,-0.1500,-0.3125,0.0000,-0.0625,0.99877929687500,0.04943847656250,0.00750732421875,-0.00006103515625
1722925455.75,0,0,0,0,-0.0100,0.0000,-0.1900,-0.6875,0.3125,0.0000,0.99877929687500,0.04937744140625,0.00750732421875,-0.00006103515625
1722925455.76,0,0,0,0,-0.0300,-0.0100,-0.2000,-0.4375,0.3750,0.0000,0.99877929687500,0.04937744140625,0.00750732421875,-0.00006103515625
1722925455.77,0,0,0,0,-0.0300,0.0000,-0.2000,-0.0625,-0.0625,0.0000,0.99877929687500,0.04937744140625,0.00750732421875,-0.00006103515625
1722925455.78,0,0,0,0,-0.0400,0.0000,-0.1700,0.3125,-0.6250,0.0000,0.99877929687500,0.04937744140625,0.00744628906250,-0.00006103515625
1722925455.79,0,0,0,0,-0.0100,0.0000,-0.1900,0.4375,-0.5625,0.0000,0.99877929687500,0.04937744140625,0.00738525390625,-0.00006103515625
1722925455.80,0,0,0,0,-0.0200,0.0000,-0.1900,-0.1250,-0.1875,0.0000,0.99877929687500,0.04937744140625,0.00744628906250,-0.00006103515625
1722925455.81,0,0,0,0,-0.0200,0.0000,-0.1800,-0.3125,0.1875,0.0000,0.99877929687500,0.04937744140625,0.00744628906250,-0.00006103515625
1722925455.82,0,0,0,0,-0.0500,-0.0100,-0.2000,-0.5000,0.1875,0.0000,0.99877929687500,0.04937744140625,0.00744628906250,-0.00006103515625
1722925455.83,0,0,0,0,-0.0400,0.0100,-0.2100,-0.3750,0.1250,0.0000,0.99877929687500,0.04937744140625,0.00744628906250,-0.00006103515625
1722925455.84,0,0,0,0,-0.0500,0.0000,-0.1900,-0.1250,-0.1875,0.0000,0.99877929687500,0.04937744140625,0.00744628906250,-0.00006103515625
1722925455.85,0,0,0,0,-0.0400,0.0200,-0.1700,0.0000,-0.3125,0.0000,0.99877929687500,0.04937744140625,0.00744628906250,-0.00006103515625
1722925455.86,0,0,0,0,-0.0300,-0.0100,-0.1900,-0.0625,-0.4375,0.0000,0.99877929687500,0.04937744140625,0.00744628906250,-0.00006103515625
1722925455.87,0,0,0,0,-0.0100,0.0100,-0.1800,-0.1250,-0.0625,0.0000,0.99877929687500,0.04937744140625,0.00744628906250,-0.00006103515625
1722925455.88,0,0,0,0,-0.0300,0.0000,-0.2000,0.0000,-0.1875,0.0000,0.99877929687500,0.04937744140625,0.00744628906250,-0.00006103515625
1722925455.89,0,0,0,0,-0.0100,0.0300,-0.1900,0.0000,-0.3125,0.0000,0.99877929687500,0.04937744140625,0.00744628906250,-0.00006103515625
1722925455.90,0,0,0,0,-0.0300,0.0200,-0.1800,0.0625,-0.4375,0.1250,0.99877929687500,0.04937744140625,0.00744628906250,-0.00006103515625
1722925455.91,0,0,0,0,-0.0200,0.0300,-0.1800,0.0000,-0.2500,-0.0625,0.99877929687500,0.04937744140625,0.00744628906250,-0.00006103515625
1722925455.92,0,0,0,0,0.0000,0.0300,-0.1900,-0.3125,0.0000,-0.0625,0.99877929687500,0.04937744140625,0.00744628906250,-0.00006103515625
1722925455.93,0,0,0,0,-0.0200,0.0100,-0.1500,-0.5625,0.1250,0.0000,0.99877929687500,0.04937744140625,0.00744628906250,-0.00006103515625
1722925455.96,0,0,0,0,-0.0300,0.0000,-0.1900,-0.2500,0.0000,-0.0625,0.99877929687500,0.04937744140625,0.00744628906250,-0.00006103515625
1722925455.96,0,0,0,0,-0.0200,0.0100,-0.2100,0.0000,-0.1875,0.0000,0.99877929687500,0.04937744140625,0.00744628906250,-0.00006103515625
1722925455.97,0,0,0,0,-0.0300,0.0000,-0.2000,0.1250,-0.3125,0.0000,0.99877929687500,0.04937744140625,0.00744628906250,-0.00006103515625
1722925455.98,0,0,0,0,-0.0300,0.0000,-0.1800,0.0000,-0.3125,0.0625,0.99877929687500,0.04937744140625,0.00744628906250,-0.00006103515625
1722925455.99,0,0,0,0,-0.0500,0.0000,-0.1800,-0.1250,0.0000,0.0000,0.99877929687500,0.04937744140625,0.00744628906250,-0.00006103515625
1722925456.00,0,0,0,0,-0.0300,-0.0100,-0.1700,-0.1250,0.0625,-0.1250,0.99877929687500,0.04937744140625,0.00744628906250,-0.00006103515625
1722925456.01,0,0,0,0,-0.0400,0.0100,-0.1900,-0.3125,0.0000,0.0000,0.99877929687500,0.04937744140625,0.00744628906250,-0.00006103515625
1722925456.02,0,0,0,0,-0.0300,0.0000,-0.1800,-0.1875,-0.0625,0.0000,0.99877929687500,0.04937744140625,0.00744628906250,-0.00006103515625
1722925456.03,0,0,0,0,-0.0200,0.0000,-0.1600,-0.2500,-0.1250,0.0000,0.99877929687500,0.04937744140625,0.00744628906250,-0.00006103515625
1722925456.04,0,0,0,0,-0.0200,0.0000,-0.1800,-0.1875,0.0000,0.0000,0.99877929687500,0.04937744140625,0.00744628906250,-0.00006103515625
1722925456.05,0,0,0,0,-0.0100,0.0000,-0.1600,-0.3750,0.0000,0.0000,0.99877929687500,0.04937744140625,0.00744628906250,-0.00006103515625
1722925456.06,0,0,0,0,-0.0300,0.0000,-0.1700,-0.2500,-0.1250,0.0000,0.99877929687500,0.04937744140625,0.00744628906250,-0.00006103515625
1722925456.07,0,0,0,0,-0.0100,0.0000,-0.2300,0.0000,0.0000,-0.0625,0.99877929687500,0.04937744140625,0.00744628906250,-0.00006103515625
1722925456.08,0,0,0,0,-0.0100,0.0100,-0.1600,0.2500,-0.3750,-0.0625,0.99877929687500,0.04937744140625,0.00744628906250,-0.00006103515625
1722925456.09,0,0,0,0,-0.0300,0.0000,-0.1700,0.2500,-0.3750,-0.0625,0.99877929687500,0.04937744140625,0.00744628906250,-0.00006103515625
1722925456.10,0,0,0,0,-0.0200,0.0000,-0.1800,-0.2500,0.0000,0.0000,0.99877929687500,0.04937744140625,0.00744628906250,-0.00006103515625
1722925456.11,0,0,0,0,-0.0400,0.0000,-0.2000,-0.3125,0.3750,-0.0625,0.99877929687500,0.04937744140625,0.00744628906250,-0.00006103515625
1722925456.12,0,0,0,0,-0.0400,0.0000,-0.1900,-0.2500,0.1250,0.0000,0.99877929687500,0.04937744140625,0.00744628906250,-0.00006103515625
1722925456.13,0,0,0,0,-0.0400,0.0000,-0.1800,0.0000,-0.1875,0.0000,0.99877929687500,0.04937744140625,0.00744628906250,-0.00006103515625
1722925456.14,0,0,0,0,-0.0300,-0.0100,-0.1700,0.0000,-0.2500,0.0000,0.99877929687500,0.04937744140625,0.00744628906250,-0.00006103515625
1722925456.15,0,0,0,0,-0.0500,0.0000,-0.1800,-0.0625,-0.1250,0.0000,0.99877929687500,0.04937744140625,0.00744628906250,-0.00006103515625
1722925456.16,0,0,0,0,-0.0400,0.0000,-0.1700,-0.2500,0.1875,0.0000,0.99877929687500,0.04937744140625,0.00744628906250,-0.00006103515625
1722925456.17,0,0,0,0,-0.0400,0.0000,-0.2000,-0.5625,0.1875,0.0000,0.99877929687500,0.04931640625000,0.00744628906250,-0.00006103515625
1722925456.18,0,0,0,0,-0.0300,-0.0100,-0.1700,-0.4375,0.0000,0.0000,0.99877929687500,0.04931640625000,0.00744628906250,-0.00006103515625
1722925456.19,0,0,0,0,-0.0300,-0.0300,-0.1900,-0.2500,-0.0625,0.0000,0.99877929687500,0.04931640625000,0.00744628906250,-0.00006103515625
1722925456.20,0,0,0,0,-0.0400,0.0100,-0.1900,0.1250,-0.0625,0.0000,0.99877929687500,0.04931640625000,0.00744628906250,-0.00006103515625
1722925456.21,0,0,0,0,-0.0200,0.0100,-0.1600,0.0625,-0.3125,0.0000,0.99877929687500,0.04931640625000,0.00744628906250,-0.00006103515625
1722925456.22,0,0,0,0,0.0000,0.0000,-0.2000,0.0000,0.0000,0.0000,0.99877929687500,0.04931640625000,0.00744628906250,-0.00006103515625
1722925456.23,0,0,0,0,-0.0100,0.0100,-0.1900,-0.1250,0.0000,-0.1250,0.99877929687500,0.04931640625000,0.00750732421875,-0.00006103515625
1722925456.24,0,0,0,0,-0.0300,0.0100,-0.1800,0.0000,-0.1875,0.0000,0.99877929687500,0.04931640625000,0.00750732421875,-0.00006103515625
1722925456.25,0,0,0,0,-0.0200,0.0100,-0.1600,0.0000,-0.3125,0.0000,0.99877929687500,0.04931640625000,0.00750732421875,-0.00006103515625
1722925456.28,0,0,0,0,-0.0200,0.0100,-0.2000,0.0000,0.0000,0.0000,0.99877929687500,0.04931640625000,0.00750732421875,-0.00006103515625
1722925456.28,0,0,0,0,-0.0200,0.0100,-0.1900,-0.3750,0.1875,-0.0625,0.99877929687500,0.04931640625000,0.00750732421875,-0.00006103515625
1722925456.29,0,0,0,0,-0.0200,0.0000,-0.1900,-0.4375,0.0625,0.0000,0.99877929687500,0.04937744140625,0.00750732421875,-0.00006103515625
1722925456.30,0,0,0,0,-0.0200,0.0000,-0.2000,-0.2500,0.0000,0.0000,0.99877929687500,0.04937744140625,0.00750732421875,-0.00006103515625
1722925456.31,0,0,0,0,-0.0400,0.0000,-0.2000,-0.1875,0.0000,0.0000,0.99877929687500,0.04937744140625,0.00750732421875,-0.00006103515625
1722925456.32,0,0,0,0,-0.0300,0.0000,-0.1900,-0.1875,0.0000,0.0000,0.99877929687500,0.04937744140625,0.00750732421875,-0.00006103515625
1722925456.33,0,0,0,0,-0.0300,-0.0100,-0.1700,-0.1250,0.0000,-0.0625,0.99877929687500,0.04937744140625,0.00750732421875,-0.00006103515625
1722925456.34,0,0,0,0,-0.0300,-0.0100,-0.1900,-0.2500,0.0000,0.0000,0.99877929687500,0.04937744140625,0.00750732421875,-0.00006103515625
1722925456.35,0,0,0,0,-0.0400,0.0000,-0.1800,-0.1875,0.0000,0.0625,0.99877929687500,0.04937744140625,0.00750732421875,-0.00006103515625
1722925456.36,0,0,0,0,-0.0300,0.0000,-0.1800,-0.1250,0.0000,0.0000,0.99877929687500,0.04937744140625,0.00750732421875,-0.00006103515625
1722925456.37,0,0,0,0,-0.0400,-0.0100,-0.2000,-0.0625,-0.1875,0.0000,0.99877929687500,0.04937744140625,0.00750732421875,-0.00006103515625
1722925456.38,0,0,0,0,-0.0500,-0.0100,-0.1900,0.0000,-0.1250,-0.0625,0.99877929687500,0.04937744140625,0.00750732421875,-0.00006103515625
1722925456.39,0,0,0,0,-0.0200,0.0100,-0.1800,0.0000,-0.2500,0.0000,0.99877929687500,0.04937744140625,0.00750732421875,-0.00006103515625
1722925456.40,0,0,0,0,-0.0300,0.0000,-0.1700,-0.0625,-0.1250,-0.0625,0.99877929687500,0.04937744140625,0.00750732421875,-0.00006103515625
1722925456.41,0,0,0,0,-0.0300,0.0200,-0.2000,-0.1250,-0.0625,0.0000,0.99877929687500,0.04937744140625,0.00750732421875,-0.00006103515625
1722925456.42,0,0,0,0,-0.0300,0.0000,-0.1900,-0.1875,0.0000,0.0000,0.99877929687500,0.04937744140625,0.00750732421875,-0.00006103515625
1722925456.43,0,0,0,0,-0.0300,0.0100,-0.1900,-0.0625,0.0000,0.0000,0.99877929687500,0.04937744140625,0.00750732421875,-0.00006103515625
1722925456.44,0,0,0,0,-0.0200,0.0000,-0.1800,-0.1875,0.0000,0.0000,0.99877929687500,0.04937744140625,0.00750732421875,-0.00006103515625
1722925456.45,0,0,0,0,-0.0200,0.0000,-0.1700,-0.3125,0.0000,0.0000,0.99877929687500,0.04937744140625,0.00750732421875,-0.00006103515625
1722925456.46,0,0,0,0,-0.0100,0.0000,-0.1500,-0.1250,0.0000,0.0000,0.99877929687500,0.04937744140625,0.00750732421875,-0.00006103515625
1722925456.47,0,0,0,0,-0.0300,-0.0100,-0.1800,-0.1875,0.0000,0.0000,0.99877929687500,0.04937744140625,0.00750732421875,-0.00006103515625
1722925456.48,0,0,0,0,-0.0400,0.0000,-0.1800,-0.2500,0.0000,0.0000,0.99877929687500,0.04937744140625,0.00750732421875,-0.00006103515625
1722925456.49,0,0,0,0,-0.0300,0.0000,-0.2000,-0.1250,-0.0625,0.0625,0.99877929687500,0.04937744140625,0.00750732421875,-0.00006103515625
1722925456.50,0,0,0,0,-0.0200,-0.0100,-0.1900,0.0000,-0.1875,-0.0625,0.99877929687500,0.04937744140625,0.00750732421875,-0.00006103515625
1722925456.51,0,0,0,0,-0.0300,0.0000,-0.2000,0.0000,-0.1250,0.0000,0.99877929687500,0.04937744140625,0.00750732421875,-0.00006103515625
1722925456.52,0,0,0,0,-0.0300,0.0000,-0.1900,0.0000,-0.1875,0.0000,0.99877929687500,0.04937744140625,0.00750732421875,-0.00006103515625
1722925456.53,0,0,0,0,-0.0300,0.0000,-0.2000,-0.1250,-0.1250,0.0000,0.99877929687500,0.04937744140625,0.00750732421875,-0.00006103515625
1722925456.54,0,0,0,0,-0.0500,0.0000,-0.1900,-0.0625,-0.1875,0.0000,0.99877929687500,0.04937744140625,0.00750732421875,-0.00006103515625
1722925456.55,0,0,1,0,-0.0700,0.0000,-0.1800,-0.0625,-0.0625,0.0000,0.99877929687500,0.04937744140625,0.00750732421875,-0.00006103515625
1722925456.56,0,0,1,0,-0.0400,0.0000,-0.1700,0.0000,0.0000,0.0000,0.99877929687500,0.04937744140625,0.00750732421875,-0.00006103515625
1722925456.57,0,0,1,0,-0.0300,0.0000,-0.1700,0.0000,-0.1250,0.0625,0.99877929687500,0.04937744140625,0.00750732421875,-0.00006103515625
1722925456.59,0,0,1,0,-0.0100,0.0100,-0.1800,0.0000,0.0000,0.0000,0.99877929687500,0.04937744140625,0.00750732421875,-0.00006103515625
1722925456.59,0,0,1,0,-0.0100,0.0100,-0.1800,0.0000,0.0000,0.0000,0.99877929687500,0.04937744140625,0.00750732421875,-0.00006103515625
1722925456.60,0,0,1,0,-0.0100,0.0100,-0.1900,0.0000,0.0000,0.0000,0.99877929687500,0.04937744140625,0.00750732421875,-0.00006103515625
1722925456.61,0,0,1,0,-0.0100,0.0000,-0.1700,0.0000,0.0000,0.0000,0.99877929687500,0.04937744140625,0.00756835937500,-0.00006103515625
1722925456.62,0,0,1,0,-0.0300,-0.0100,-0.2100,0.0000,0.0000,-0.1250,0.99877929687500,0.04937744140625,0.00756835937500,-0.00006103515625
1722925456.63,0,0,1,0,-0.0200,0.0000,-0.2000,0.0000,0.0000,0.0625,0.99877929687500,0.04937744140625,0.00756835937500,-0.00006103515625
1722925456.64,0,0,1,0,-0.0200,0.0000,-0.1900,0.0000,0.1250,0.0000,0.99877929687500,0.04937744140625,0.00756835937500,-0.00006103515625
1722925456.65,0,0,1,0,-0.0400,0.0000,-0.1800,0.0000,0.0625,-0.0625,0.99877929687500,0.04937744140625,0.00756835937500,-0.00006103515625
1722925456.66,0,0,1,0,-0.0500,0.0000,-0.1900,-0.0625,0.0625,0.0000,0.99877929687500,0.04937744140625,0.00756835937500,-0.00006103515625
1722925456.67,0,0,1,0,-0.0500,-0.0100,-0.1900,0.0000,0.0625,0.0000,0.99877929687500,0.04937744140625,0.00756835937500,-0.00006103515625
1722925456.68,0,0,1,0,-0.0300,-0.0100,-0.1900,0.0000,0.0000,0.0000,0.99877929687500,0.04937744140625,0.00756835937500,-0.00006103515625
1722925456.69,0,0,1,0,-0.0200,0.0000,-0.1900,0.0000,0.1875,-0.1250,0.99877929687500,0.04937744140625,0.00756835937500,-0.00006103515625
1722925456.70,0,0,1,0,-0.0400,0.0000,-0.1400,0.0000,0.0000,0.0000,0.99877929687500,0.04937744140625,0.00756835937500,-0.00006103515625
1722925456.71,0,0,1,0,-0.0400,-0.0100,-0.1800,0.1250,-0.1250,0.0625,0.99877929687500,0.04937744140625,0.00756835937500,-0.00006103515625
1722925456.72,0,0,1,0,-0.0300,0.0000,-0.1900,0.0625,-0.0625,0.0000,0.99877929687500,0.04937744140625,0.00756835937500,-0.00006103515625
1722925456.73,0,0,1,0,-0.0400,-0.0200,-0.2000,0.0000,-0.1250,0.0000,0.99877929687500,0.04937744140625,0.00756835937500,-0.00006103515625
1722925456.74,0,0,1,0,-0.0400,0.0000,-0.1900,0.0000,0.0000,0.0000,0.99877929687500,0.04937744140625,0.00756835937500,-0.00006103515625
1722925456.75,0,0,1,0,-0.0300,0.0000,-0.2000,0.0000,0.0000,0.0000,0.99877929687500,0.04937744140625,0.00756835937500,-0.00006103515625
1722925456.76,0,0,1,0,-0.0300,0.0200,-0.1800,0.0000,0.0625,0.0000,0.99877929687500,0.04937744140625,0.00756835937500,-0.00006103515625
1722925456.77,0,0,1,0,-0.0200,0.0000,-0.1900,-0.0625,0.0625,0.0000,0.99877929687500,0.04937744140625,0.00756835937500,-0.00006103515625
1722925456.78,0,0,1,0,-0.0200,0.0100,-0.1900,-0.1250,0.0000,0.0000,0.99877929687500,0.04937744140625,0.00756835937500,-0.00006103515625
1722925456.79,0,0,1,0,-0.0200,0.0000,-0.1800,-0.1250,0.0000,0.0000,0.99877929687500,0.04937744140625,0.00756835937500,-0.00006103515625
1722925456.80,0,0,1,0,-0.0100,-0.0100,-0.1500,0.0000,0.0625,0.0000,0.99877929687500,0.04937744140625,0.00756835937500,-0.00006103515625
1722925456.81,0,0,1,0,-0.0200,-0.0100,-0.1900,0.0000,0.1250,-0.0625,0.99877929687500,0.04937744140625,0.00756835937500,-0.00006103515625
1722925456.82,0,0,1,0,-0.0300,0.0100,-0.2100,0.0000,0.0000,0.0000,0.99877929687500,0.04937744140625,0.00756835937500,-0.00006103515625
1722925456.83,0,0,1,0,-0.0400,-0.0100,-0.1900,0.0000,0.0000,0.0000,0.99877929687500,0.04937744140625,0.00756835937500,-0.00006103515625
1722925456.84,0,0,1,0,-0.0500,-0.0200,-0.1900,0.0000,0.0000,0.0000,0.99877929687500,0.04943847656250,0.00756835937500,-0.00006103515625
1722925456.85,0,0,1,0,-0.0400,-0.0100,-0.1800,0.0000,0.0625,0.0625,0.99877929687500,0.04943847656250,0.00756835937500,-0.00006103515625
1722925456.86,0,0,1,0,-0.0200,0.0000,-0.1800,0.1250,0.0000,-0.0625,0.99877929687500,0.04943847656250,0.00756835937500,-0.00006103515625
1722925456.87,0,0,1,0,-0.0300,0.0000,-0.1900,0.0000,0.0000,0.0000,0.99877929687500,0.04943847656250,0.00756835937500,-0.00006103515625
1722925456.88,0,0,1,0,-0.0200,0.0000,-0.1800,0.0000,0.0000,0.0000,0.99877929687500,0.04943847656250,0.00756835937500,-0.00006103515625
1722925456.91,0,0,1,0,-0.0200,-0.0100,-0.1700,-0.0625,-0.0625,0.0000,0.99877929687500,0.04943847656250,0.00756835937500,-0.00006103515625
1722925456.91,0,0,1,0,-0.0500,-0.0100,-0.1800,0.0000,-0.0625,0.0000,0.99877929687500,0.04943847656250,0.00756835937500,-0.00006103515625
1722925456.92,0,0,1,0,-0.0200,0.0100,-0.1900,0.0000,0.0000,0.0000,0.99877929687500,0.04943847656250,0.00756835937500,-0.00006103515625
1722925456.93,0,0,1,0,-0.0300,0.0100,-0.1800,0.1875,0.0000,0.0000,0.99877929687500,0.04943847656250,0.00756835937500,-0.00006103515625
1722925456.94,0,0,1,0,-0.0200,0.0100,-0.1800,0.1250,-0.1250,0.0625,0.99877929687500,0.04943847656250,0.00756835937500,-0.00006103515625
1722925456.95,0,0,1,0,-0.0400,0.0000,-0.1700,0.0625,-0.0625,0.0000,0.99877929687500,0.04943847656250,0.00762939453125,-0.00006103515625
1722925456.96,0,0,1,0,-0.0100,0.0000,-0.1900,0.1250,0.0000,0.0000,0.99877929687500,0.04943847656250,0.00762939453125,-0.00006103515625
1722925456.97,0,0,1,0,-0.0200,-0.0100,-0.2000,0.0000,-0.1875,0.0000,0.99877929687500,0.04943847656250,0.00762939453125,-0.00006103515625
1722925456.98,0,0,1,0,-0.0300,0.0000,-0.1700,-0.1875,0.0000,0.0000,0.99877929687500,0.04943847656250,0.00762939453125,-0.00006103515625
1722925456.99,0,0,1,0,-0.0300,-0.0100,-0.1900,0.0000,0.0000,0.0000,0.99877929687500,0.04943847656250,0.00762939453125,-0.00006103515625
1722925457.00,0,0,1,0,-0.0100,0.0000,-0.1900,0.0000,0.1250,0.0000,0.99877929687500,0.04943847656250,0.00762939453125,-0.00006103515625
1722925457.01,0,0,1,0,-0.0300,-0.0100,-0.1800,0.0000,0.0000,0.0000,0.99877929687500,0.04943847656250,0.00762939453125,-0.00006103515625
1722925457.02,0,0,1,0,-0.0100,-0.0100,-0.1900,0.0000,0.0000,0.0000,0.99877929687500,0.04943847656250,0.00762939453125,-0.00006103515625
1722925457.03,0,0,1,0,-0.0300,0.0000,-0.1800,0.0000,0.0000,0.0000,0.99877929687500,0.04943847656250,0.00762939453125,-0.00006103515625
1722925457.04,0,0,1,0,-0.0200,-0.0100,-0.1800,0.0000,0.0000,0.0000,0.99871826171875,0.04943847656250,0.00762939453125,-0.00006103515625
1722925457.05,0,0,2,0,-0.0300,-0.0200,-0.1700,0.0625,-0.0625,0.0000,0.99871826171875,0.04943847656250,0.00762939453125,-0.00006103515625
1722925457.06,0,0,2,0,-0.0300,-0.0100,-0.1600,0.0000,0.0000,-0.0625,0.99871826171875,0.04943847656250,0.00762939453125,-0.00006103515625
1722925457.07,0,0,2,0,-0.0400,-0.0200,-0.1700,0.0000,0.0000,0.0000,0.99871826171875,0.04943847656250,0.00762939453125,-0.00006103515625
1722925457.08,0,0,2,0,-0.0400,0.0000,-0.1800,0.0000,0.0625,0.1875,0.99871826171875,0.04943847656250,0.00762939453125,-0.00006103515625
1722925457.09,0,0,2,0,-0.0100,-0.0300,-0.1900,0.0000,0.1250,0.0625,0.99871826171875,0.04943847656250,0.00762939453125,-0.00006103515625
1722925457.10,0,0,2,0,-0.0400,0.0000,-0.1900,0.0000,0.1250,0.0000,0.99871826171875,0.04943847656250,0.00762939453125,-0.00006103515625
1722925457.11,0,0,2,0,-0.0100,0.0000,-0.1800,0.0625,0.0000,0.0000,0.99871826171875,0.04943847656250,0.00762939453125,-0.00006103515625
1722925457.12,0,0,2,0,-0.0300,-0.0100,-0.2000,0.0000,0.0000,0.0000,0.99871826171875,0.04943847656250,0.00762939453125,-0.00006103515625
1722925457.13,0,0,2,0,-0.0300,0.0100,-0.1900,0.1250,0.0000,0.0000,0.99871826171875,0.04943847656250,0.00762939453125,-0.00006103515625
1722925457.14,0,0,2,0,-0.0300,-0.0100,-0.1600,0.0625,0.0000,0.0625,0.99871826171875,0.04943847656250,0.00762939453125,-0.00006103515625
1722925457.15,0,0,2,0,-0.0500,-0.0100,-0.1800,0.0000,0.0000,0.0000,0.99871826171875,0.04943847656250,0.00762939453125,-0.00006103515625
1722925457.16,0,0,2,0,-0.0300,-0.0200,-0.1900,0.0000,0.0000,0.0000,0.99871826171875,0.04943847656250,0.00762939453125,-0.00006103515625
1722925457.17,0,0,2,0,-0.0400,-0.0100,-0.1800,0.0000,0.0000,0.0000,0.99871826171875,0.04943847656250,0.00762939453125,-0.00006103515625
1722925457.18,0,0,2,0,-0.0300,-0.0200,-0.1900,0.0000,0.1250,0.0000,0.99871826171875,0.04943847656250,0.00762939453125,-0.00006103515625
1722925457.19,0,0,2,0,0.0000,-0.0100,-0.1600,0.0000,0.1250,0.0000,0.99871826171875,0.04943847656250,0.00762939453125,-0.00006103515625
1722925457.22,0,0,2,0,-0.0300,-0.0100,-0.1900,0.0000,0.0000,0.0000,0.99871826171875,0.04943847656250,0.00762939453125,-0.00006103515625
1722925457.22,0,0,2,0,-0.0500,0.0000,-0.2100,0.0000,0.0000,0.0000,0.99871826171875,0.04943847656250,0.00762939453125,-0.00006103515625
1722925457.23,0,0,2,0,-0.0400,0.0000,-0.1800,0.1875,-0.0625,0.0000,0.99871826171875,0.04943847656250,0.00762939453125,-0.00006103515625
1722925457.24,0,0,2,0,-0.0300,0.0000,-0.1800,0.0625,0.0000,0.0000,0.99871826171875,0.04943847656250,0.00762939453125,-0.00006103515625
1722925457.25,0,0,2,0,-0.0500,0.0000,-0.1900,0.0625,0.0000,0.0000,0.99871826171875,0.04943847656250,0.00762939453125,-0.00006103515625
1722925457.26,0,0,2,0,-0.0300,0.0000,-0.1900,0.1250,-0.0625,0.0625,0.99871826171875,0.04943847656250,0.00762939453125,-0.00006103515625
1722925457.27,0,0,2,0,-0.0300,-0.0200,-0.1700,0.0000,0.0000,-0.0625,0.99871826171875,0.04943847656250,0.00762939453125,-0.00006103515625
1722925457.28,0,0,2,0,-0.0300,-0.0100,-0.1700,0.0000,0.0000,0.0000,0.99871826171875,0.04943847656250,0.00762939453125,-0.00006103515625
1722925457.29,0,0,2,0,-0.0200,0.0000,-0.1800,0.0000,0.0000,0.0000,0.99871826171875,0.04943847656250,0.00769042968750,-0.00006103515625
1722925457.30,0,0,2,0,-0.0400,-0.0100,-0.1900,-0.0625,0.0000,-0.0625,0.99871826171875,0.04943847656250,0.00769042968750,-0.00006103515625
1722925457.31,0,0,2,0,-0.0500,0.0000,-0.1800,-0.0625,0.0000,0.0000,0.99871826171875,0.04943847656250,0.00769042968750,-0.00006103515625
1722925457.32,0,0,2,0,-0.0400,-0.0200,-0.2100,0.0000,0.0000,0.0000,0.99871826171875,0.04943847656250,0.00769042968750,-0.00006103515625
1722925457.33,0,0,2,0,-0.0400,0.0000,-0.2100,0.0625,0.0000,0.0000,0.99871826171875,0.04943847656250,0.00769042968750,-0.00006103515625
1722925457.34,0,0,2,0,-0.0300,-0.0100,-0.1800,0.1250,0.0000,-0.1250,0.99871826171875,0.04943847656250,0.00769042968750,-0.00006103515625
1722925457.35,0,0,2,0,-0.0300,0.0000,-0.1600,0.0000,-0.1250,0.0000,0.99871826171875,0.04943847656250,0.00769042968750,-0.00006103515625
1722925457.36,0,0,2,0,-0.0200,0.0000,-0.1800,0.1250,0.0000,0.0000,0.99871826171875,0.04943847656250,0.00769042968750,-0.00006103515625
1722925457.37,0,0,2,0,-0.0500,-0.0200,-0.1800,0.0000,0.0000,0.0000,0.99871826171875,0.04943847656250,0.00769042968750,-0.00006103515625
1722925457.38,0,0,2,0,-0.0300,-0.0100,-0.1800,-0.1250,0.0000,0.0000,0.99871826171875,0.04943847656250,0.00769042968750,-0.00006103515625
1722925457.39,0,0,2,0,-0.0300,0.0000,-0.1900,0.0000,0.0625,0.0000,0.99871826171875,0.04943847656250,0.00769042968750,-0.00006103515625
1722925457.40,0,0,2,0,-0.0500,-0.0100,-0.1800,-0.0625,0.0000,0.0000,0.99871826171875,0.04943847656250,0.00769042968750,-0.00006103515625
1722925457.41,0,0,2,0,-0.0200,0.0000,-0.1900,0.0000,0.0625,0.0000,0.99871826171875,0.04943847656250,0.00769042968750,-0.00006103515625
1722925457.42,0,0,2,0,-0.0300,-0.0100,-0.1900,0.0000,0.0000,0.0000,0.99871826171875,0.04943847656250,0.00769042968750,-0.00006103515625
1722925457.43,0,0,2,0,-0.0200,0.0000,-0.1900,0.0625,0.0000,-0.1250,0.99871826171875,0.04943847656250,0.00769042968750,-0.00006103515625
1722925457.44,0,0,2,0,-0.0400,-0.0100,-0.1700,0.0625,0.0000,-0.0625,0.99871826171875,0.04943847656250,0.00769042968750,-0.00006103515625
1722925457.45,0,0,2,0,-0.0200,-0.0100,-0.1800,0.1250,-0.0625,0.0000,0.99871826171875,0.04943847656250,0.00769042968750,-0.00006103515625
1722925457.46,0,0,2,0,-0.0500,0.0000,-0.1900,0.0000,0.0000,0.0000,0.99871826171875,0.04943847656250,0.00769042968750,-0.00006103515625
1722925457.47,0,0,2,0,-0.0300,0.0000,-0.1900,0.0000,0.0000,0.0000,0.99871826171875,0.04943847656250,0.00769042968750,-0.00006103515625
1722925457.48,0,0,2,0,-0.0200,0.0100,-0.1900,0.0000,0.0000,0.0000,0.99871826171875,0.04943847656250,0.00769042968750,-0.00006103515625
1722925457.49,0,0,2,0,-0.0200,0.0000,-0.1700,0.0000,0.0000,-0.1250,0.99871826171875,0.04943847656250,0.00769042968750,-0.00006103515625
1722925457.50,0,0,2,0,-0.0300,0.0100,-0.1700,0.0000,0.1250,0.0000,0.99871826171875,0.04943847656250,0.00769042968750,-0.00006103515625
1722925457.51,0,0,2,0,-0.0200,-0.0100,-0.1700,0.0000,0.0625,0.0000,0.99871826171875,0.04943847656250,0.00769042968750,-0.00006103515625
1722925457.53,0,0,2,0,-0.0400,0.0000,-0.1900,0.0000,0.0000,0.0000,0.99871826171875,0.04943847656250,0.00769042968750,-0.00006103515625
1722925457.54,0,0,2,0,-0.0200,-0.0100,-0.1900,0.0000,0.0000,0.0000,0.99871826171875,0.04943847656250,0.00769042968750,-0.00006103515625
1722925457.55,0,0,3,0,-0.0400,-0.0100,-0.1800,0.1250,0.0000,0.0000,0.99871826171875,0.04943847656250,0.00769042968750,-0.00006103515625
1722925457.56,0,0,3,0,-0.0300,-0.0100,-0.1900,0.0625,-0.0625,0.0000,0.99871826171875,0.04943847656250,0.00769042968750,-0.00006103515625
1722925457.57,0,0,3,0,-0.0300,-0.0100,-0.1800,0.0000,0.0000,0.0000,0.99871826171875,0.04943847656250,0.00769042968750,-0.00006103515625
1722925457.58,0,0,3,0,-0.0400,-0.0200,-0.1700,0.0000,0.0000,0.0000,0.99871826171875,0.04943847656250,0.00769042968750,-0.00006103515625
1722925457.59,0,0,3,0,-0.0300,-0.0100,-0.1900,0.0000,0.1250,0.0000,0.99871826171875,0.04943847656250,0.00769042968750,-0.00006103515625
1722925457.60,0,0,3,0,-0.0400,-0.0200,-0.1800,0.0000,0.1250,-0.0625,0.99871826171875,0.04943847656250,0.00769042968750,-0.00006103515625
1722925457.61,0,0,3,0,-0.0300,-0.0300,-0.1900,0.0000,-0.1250,0.1250,0.99871826171875,0.04943847656250,0.00775146484375,-0.00006103515625
1722925457.62,0,0,3,0,-0.0500,-0.0200,-0.2100,0.0000,-0.0625,0.0000,0.99871826171875,0.04943847656250,0.00775146484375,-0.00006103515625
1722925457.63,0,0,3,0,-0.0200,0.0000,-0.1800,0.0000,-0.0625,0.0000,0.99871826171875,0.04943847656250,0.00775146484375,-0.00006103515625
1722925457.64,0,0,3,0,-0.0300,-0.0100,-0.2000,0.0000,-0.0625,0.0625,0.99871826171875,0.04949951171875,0.00775146484375,-0.00006103515625
1722925457.65,0,0,3,0,-0.0200,0.0000,-0.1400,0.0000,0.0000,-0.0625,0.99871826171875,0.04949951171875,0.00775146484375,-0.00006103515625
1722925457.66,0,0,3,0,-0.0300,0.0000,-0.1800,0.0000,0.0000,0.0000,0.99871826171875,0.04949951171875,0.00775146484375,-0.00006103515625
1722925457.67,0,0,3,0,-0.0200,0.0000,-0.1900,0.0000,0.0000,0.0000,0.99871826171875,0.04949951171875,0.00775146484375,-0.00006103515625
1722925457.68,0,0,3,0,-0.0200,-0.0200,-0.1800,0.0625,0.0625,0.0000,0.99871826171875,0.04949951171875,0.00775146484375,-0.00006103515625
1722925457.69,0,0,3,0,-0.0300,-0.0200,-0.1700,0.0000,0.0625,0.0000,0.99871826171875,0.04949951171875,0.00775146484375,-0.00006103515625
1722925457.70,0,0,3,0,-0.0200,-0.0300,-0.1600,0.0000,0.0625,0.0000,0.99871826171875,0.04949951171875,0.00775146484375,-0.00006103515625
1722925457.71,0,0,3,0,-0.0300,0.0000,-0.2000,0.0000,0.1250,0.0000,0.99871826171875,0.04949951171875,0.00775146484375,-0.00006103515625
1722925457.72,0,0,3,0,-0.0200,-0.0100,-0.1900,0.0000,0.0000,0.0000,0.99871826171875,0.04949951171875,0.00775146484375,-0.00006103515625
1722925457.73,0,0,3,0,-0.0200,-0.0100,-0.1900,0.0000,0.0000,0.0000,0.99871826171875,0.04949951171875,0.00775146484375,-0.00006103515625
1722925457.74,0,0,3,0,-0.0300,0.0000,-0.1900,0.1250,0.0625,0.0000,0.99871826171875,0.04949951171875,0.00775146484375,-0.00006103515625
1722925457.75,0,0,3,0,-0.0300,-0.0100,-0.1700,0.0000,0.0000,-0.1250,0.99871826171875,0.04949951171875,0.00775146484375,-0.00006103515625
1722925457.76,0,0,3,0,-0.0400,-0.0200,-0.1800,0.0625,0.0000,0.0000,0.99871826171875,0.04949951171875,0.00775146484375,-0.00006103515625
1722925457.77,0,0,3,0,-0.0400,-0.0200,-0.1900,0.0000,0.0000,0.0000,0.99871826171875,0.04949951171875,0.00775146484375,-0.00006103515625
1722925457.78,0,0,3,0,-0.0300,-0.0100,-0.1900,0.0000,0.0000,0.0000,0.99871826171875,0.04949951171875,0.00775146484375,-0.00006103515625
1722925457.79,0,0,3,0,-0.0200,-0.0200,-0.1800,0.0000,0.0000,0.0000,0.99871826171875,0.04949951171875,0.00775146484375,-0.00006103515625
1722925457.80,0,0,3,0,-0.0500,-0.0100,-0.1700,0.0000,0.0000,0.0000,0.99871826171875,0.04949951171875,0.00775146484375,-0.00006103515625
1722925457.81,0,0,3,0,-0.0300,0.0000,-0.1800,0.0000,0.1250,0.0000,0.99871826171875,0.04949951171875,0.00775146484375,-0.00006103515625
1722925457.82,0,0,3,0,-0.0300,0.0000,-0.1800,0.0625,0.1875,0.0000,0.99871826171875,0.04949951171875,0.00775146484375,-0.00006103515625
1722925457.83,0,0,3,0,-0.0200,-0.0200,-0.1700,0.0000,0.0000,0.0000,0.99871826171875,0.04949951171875,0.00775146484375,-0.00006103515625
1722925457.86,0,0,3,0,-0.0200,-0.0300,-0.1500,0.1875,0.0000,0.0000,0.99871826171875,0.04949951171875,0.00775146484375,-0.00006103515625
1722925457.86,0,0,3,0,-0.0300,0.0000,-0.1900,0.0000,-0.0625,0.0000,0.99871826171875,0.04949951171875,0.00775146484375,-0.00006103515625
1722925457.87,0,0,3,0,-0.0200,-0.0200,-0.2000,0.0000,0.0625,0.0000,0.99871826171875,0.04949951171875,0.00775146484375,-0.00006103515625
1722925457.88,0,0,3,0,-0.0200,0.0000,-0.2000,-0.0625,0.0625,0.0000,0.99871826171875,0.04949951171875,0.00775146484375,-0.00006103515625
1722925457.89,0,0,3,0,-0.0200,-0.0100,-0.1900,-0.0625,0.1250,0.0000,0.99871826171875,0.04949951171875,0.00775146484375,-0.00006103515625
1722925457.90,0,0,3,0,-0.0300,0.0000,-0.1800,0.0000,0.1250,0.0000,0.99871826171875,0.04949951171875,0.00775146484375,-0.00006103515625
1722925457.91,0,0,3,0,-0.0400,-0.0200,-0.1900,0.0625,0.0000,0.1875,0.99871826171875,0.04949951171875,0.00775146484375,-0.00006103515625
1722925457.92,0,0,3,0,-0.0200,-0.0100,-0.1800,0.0625,0.0000,-0.0625,0.99871826171875,0.04949951171875,0.00775146484375,-0.00006103515625
1722925457.93,0,0,3,0,-0.0300,0.0000,-0.1800,0.1250,0.0000,0.0000,0.99871826171875,0.04949951171875,0.00775146484375,-0.00006103515625
1722925457.94,0,0,3,0,-0.0200,0.0000,-0.1800,0.0000,0.0625,0.1250,0.99871826171875,0.04949951171875,0.00781250000000,-0.00006103515625
1722925457.95,0,0,3,0,-0.0400,0.0000,-0.1600,0.0000,0.1250,0.0000,0.99871826171875,0.04949951171875,0.00781250000000,-0.00006103515625
1722925457.97,0,0,3,0,-0.0400,-0.0200,-0.1600,0.0000,0.0000,0.0000,0.99871826171875,0.04949951171875,0.00781250000000,-0.00006103515625
1722925457.97,0,0,3,0,-0.0400,0.0000,-0.1900,0.0000,0.0000,0.0000,0.99871826171875,0.04949951171875,0.00781250000000,-0.00006103515625
1722925457.98,0,0,3,0,-0.0300,-0.0300,-0.1800,0.0000,0.0625,0.0000,0.99871826171875,0.04949951171875,0.00781250000000,-0.00006103515625
1722925457.99,0,0,3,0,-0.0300,-0.0200,-0.1700,-0.0625,0.0000,0.0000,0.99871826171875,0.04949951171875,0.00781250000000,-0.00006103515625
1722925458.00,0,0,3,0,-0.0400,-0.0100,-0.1700,0.0000,0.0000,0.0000,0.99871826171875,0.04949951171875,0.00781250000000,-0.00006103515625
1722925458.01,0,0,3,0,-0.0200,-0.0300,-0.1900,0.0000,0.0000,0.0000,0.99871826171875,0.04949951171875,0.00781250000000,-0.00006103515625
1722925458.02,0,0,3,0,-0.0500,-0.0200,-0.1900,0.1250,0.0000,0.0000,0.99871826171875,0.04949951171875,0.00781250000000,-0.00006103515625
1722925458.03,0,0,3,0,-0.0300,-0.0100,-0.1900,0.0000,0.0000,0.0000,0.99871826171875,0.04949951171875,0.00781250000000,-0.00006103515625
1722925458.05,0,0,3,0,-0.0300,-0.0100,-0.1700,0.0625,0.0000,0.0000,0.99871826171875,0.04949951171875,0.00781250000000,-0.00006103515625
1722925458.05,0,0,3,0,-0.0200,0.0000,-0.1900,0.0000,-0.1250,0.0000,0.99871826171875,0.04949951171875,0.00781250000000,-0.00006103515625
1722925458.06,0,0,3,0,-0.0400,-0.0200,-0.1700,0.0000,0.0000,0.0000,0.99871826171875,0.04949951171875,0.00781250000000,-0.00006103515625
1722925458.07,0,0,3,0,-0.0300,-0.0100,-0.2000,0.0000,0.0000,0.0000,0.99871826171875,0.04949951171875,0.00781250000000,-0.00006103515625
1722925458.08,0,0,3,0,-0.0300,-0.0300,-0.1700,0.0000,0.0000,0.0000,0.99871826171875,0.04949951171875,0.00781250000000,-0.00006103515625
1722925458.09,0,0,3,0,-0.0500,-0.0300,-0.1900,0.0000,0.1250,0.0000,0.99871826171875,0.04949951171875,0.00781250000000,-0.00006103515625
1722925458.10,0,0,3,0,-0.0300,-0.0300,-0.1500,0.0000,0.0625,0.0000,0.99871826171875,0.04949951171875,0.00781250000000,-0.00006103515625
1722925458.11,0,0,3,0,0.0000,0.0000,-0.2100,0.0000,0.0000,0.0000,0.99871826171875,0.04949951171875,0.00781250000000,-0.00006103515625
1722925458.13,0,0,3,0,-0.0300,-0.0400,-0.1900,0.0000,0.0000,0.0000,0.99871826171875,0.04949951171875,0.00781250000000,-0.00006103515625
1722925458.13,0,0,3,0,-0.0400,-0.0200,-0.1600,0.3125,0.0000,0.0000,0.99871826171875,0.04949951171875,0.00781250000000,-0.00006103515625
1722925458.14,0,0,3,0,-0.0400,-0.0200,-0.1900,0.1250,0.0000,0.0000,0.99871826171875,0.04949951171875,0.00781250000000,-0.00006103515625
1722925458.15,0,0,3,0,-0.0200,0.0000,-0.1800,0.1250,-0.1250,0.0000,0.99871826171875,0.04949951171875,0.00781250000000,-0.00006103515625
1722925458.18,0,0,3,0,-0.0300,-0.0200,-0.1900,0.0625,0.0625,0.0000,0.99871826171875,0.04949951171875,0.00781250000000,-0.00006103515625
1722925458.18,0,0,3,0,-0.0200,-0.0200,-0.1600,0.0000,0.0000,0.0000,0.99871826171875,0.04949951171875,0.00781250000000,-0.00006103515625
1722925458.20,0,0,3,0,-0.0400,-0.0100,-0.1600,0.0000,0.0000,0.0000,0.99871826171875,0.04949951171875,0.00781250000000,-0.00006103515625
1722925458.21,0,0,3,0,-0.0400,-0.0300,-0.1800,0.0000,0.1875,0.0625,0.99871826171875,0.04949951171875,0.00781250000000,-0.00006103515625
1722925458.22,0,0,3,0,-0.0100,-0.0200,-0.1900,0.0000,0.0625,0.0000,0.99871826171875,0.04949951171875,0.00781250000000,-0.00006103515625
1722925458.22,0,0,3,0,-0.0400,-0.0200,-0.2000,0.0000,0.0000,0.0000,0.99871826171875,0.04949951171875,0.00781250000000,-0.00006103515625
1722925458.23,0,0,3,0,-0.0300,0.0000,-0.1700,0.0000,-0.1875,0.0000,0.99871826171875,0.04949951171875,0.00781250000000,-0.00006103515625
1722925458.24,0,0,3,0,-0.0300,-0.0400,-0.1800,0.0625,0.0000,-0.0625,0.99871826171875,0.04949951171875,0.00781250000000,-0.00006103515625
1722925458.25,0,0,3,0,-0.0400,0.0000,-0.1600,0.0000,0.0625,0.0000,0.99871826171875,0.04949951171875,0.00787353515625,-0.00006103515625
1722925458.26,0,0,3,0,-0.0400,-0.0100,-0.1800,0.0625,0.0000,0.0000,0.99871826171875,0.04949951171875,0.00787353515625,-0.00006103515625
1722925458.27,0,0,3,0,-0.0400,-0.0200,-0.1900,0.0000,0.0625,0.0000,0.99871826171875,0.04949951171875,0.00787353515625,-0.00006103515625
1722925458.29,0,0,3,0,-0.0300,-0.0300,-0.1900,0.0000,0.0000,0.0000,0.99871826171875,0.04949951171875,0.00787353515625,-0.00006103515625
1722925458.30,0,0,3,0,-0.0400,-0.0300,-0.1600,0.0625,-0.0625,0.0000,0.99871826171875,0.04949951171875,0.00787353515625,-0.00006103515625
1722925458.30,0,0,3,0,-0.0100,-0.0200,-0.1700,0.0000,0.0000,0.0000,0.99871826171875,0.04949951171875,0.00787353515625,-0.00006103515625
1722925458.31,0,0,3,0,0.0000,-0.0300,-0.1700,-0.1250,0.1250,-0.0625,0.99871826171875,0.04949951171875,0.00787353515625,-0.00006103515625
1722925458.32,0,0,3,0,-0.0500,0.0000,-0.1900,0.0000,0.0000,0.0000,0.99871826171875,0.04949951171875,0.00787353515625,-0.00006103515625
1722925458.33,0,0,3,0,-0.0200,-0.0400,-0.1600,0.0625,0.0000,0.0000,0.99871826171875,0.04949951171875,0.00787353515625,-0.00006103515625
1722925458.34,0,0,3,0,-0.0300,-0.0300,-0.1500,0.1875,0.0000,0.0000,0.99871826171875,0.04949951171875,0.00787353515625,-0.00006103515625
1722925458.35,0,0,3,0,-0.0500,-0.0200,-0.1900,0.2500,-0.1250,0.0000,0.99871826171875,0.04949951171875,0.00787353515625,-0.00006103515625
1722925458.37,0,0,3,0,-0.0500,-0.0300,-0.1800,0.1875,-0.0625,-0.0625,0.99871826171875,0.04949951171875,0.00787353515625,-0.00006103515625
1722925458.38,0,0,3,0,-0.0300,-0.0300,-0.1900,0.0625,-0.0625,0.0000,0.99871826171875,0.04949951171875,0.00787353515625,-0.00006103515625
1722925458.38,0,0,3,0,-0.0200,-0.0300,-0.1700,0.0000,0.0000,0.1250,0.99871826171875,0.04949951171875,0.00787353515625,-0.00006103515625
1722925458.39,0,0,3,0,-0.0200,-0.0100,-0.2000,-0.0625,0.0625,0.0000,0.99871826171875,0.04949951171875,0.00787353515625,-0.00006103515625
1722925458.40,0,0,3,0,-0.0300,-0.0100,-0.1800,-0.1250,0.0625,0.0000,0.99871826171875,0.04949951171875,0.00787353515625,-0.00006103515625
1722925458.41,0,0,3,0,-0.0300,-0.0100,-0.1600,0.0000,0.0000,0.0000,0.99871826171875,0.04949951171875,0.00787353515625,-0.00006103515625
1722925458.42,0,0,3,0,-0.0300,-0.0100,-0.1800,0.0625,0.0000,0.0000,0.99871826171875,0.04949951171875,0.00787353515625,-0.00006103515625
1722925458.43,0,0,3,0,-0.0200,0.0000,-0.1900,0.0000,0.0625,0.0000,0.99871826171875,0.04949951171875,0.00787353515625,-0.00006103515625
1722925458.45,0,0,3,0,-0.0300,-0.0300,-0.1800,0.0000,0.1250,-0.1250,0.99871826171875,0.04949951171875,0.00787353515625,-0.00006103515625
1722925458.46,0,0,3,0,-0.0400,0.0000,-0.1600,0.0625,0.0000,0.0000,0.99871826171875,0.04949951171875,0.00787353515625,-0.00006103515625
1722925458.47,0,0,3,0,-0.0300,0.0000,-0.2000,0.2500,0.0000,0.0000,0.99871826171875,0.04949951171875,0.00787353515625,-0.00006103515625
1722925458.47,0,0,3,0,-0.0400,-0.0100,-0.1900,0.0625,-0.0625,0.0625,0.99871826171875,0.04949951171875,0.00787353515625,-0.00006103515625
1722925458.48,0,0,3,0,-0.0500,-0.0200,-0.1700,0.0000,0.0000,0.0000,0.99871826171875,0.04949951171875,0.00787353515625,-0.00006103515625
1722925458.51,0,0,3,0,-0.0400,-0.0200,-0.1700,-0.1875,0.1250,0.0000,0.99871826171875,0.04949951171875,0.00787353515625,-0.00006103515625
1722925458.51,0,0,3,0,-0.0300,-0.0400,-0.1700,-0.1250,0.0000,0.0000,0.99871826171875,0.04949951171875,0.00787353515625,-0.00006103515625
1722925458.53,0,0,3,0,-0.0500,-0.0100,-0.2100,0.0000,0.0000,0.0000,0.99871826171875,0.04949951171875,0.00787353515625,-0.00006103515625
1722925458.54,0,0,3,0,-0.0200,-0.0300,-0.1800,0.0000,0.0000,-0.0625,0.99871826171875,0.04949951171875,0.00787353515625,-0.00006103515625
1722925458.55,0,0,3,0,-0.0300,-0.0100,-0.1600,0.0000,-0.0625,0.0000,0.99871826171875,0.04949951171875,0.00787353515625,-0.00006103515625
1722925458.55,0,0,3,0,-0.0400,-0.0100,-0.1700,0.0000,0.0000,0.0000,0.99871826171875,0.04949951171875,0.00787353515625,-0.00006103515625
1722925458.56,0,0,3,0,-0.0300,-0.0200,-0.2100,0.1250,0.0000,0.0625,0.99871826171875,0.04949951171875,0.00793457031250,-0.00006103515625
1722925458.57,0,0,3,0,-0.0200,0.0000,-0.2000,0.1250,0.0625,0.0000,0.99871826171875,0.04949951171875,0.00793457031250,-0.00006103515625
1722925458.58,0,0,3,0,-0.0400,0.0000,-0.1800,0.1875,0.0000,0.0625,0.99871826171875,0.04949951171875,0.00793457031250,-0.00006103515625
1722925458.60,0,0,3,0,-0.0400,-0.0100,-0.1700,0.0625,0.0000,0.0000,0.99871826171875,0.04949951171875,0.00793457031250,-0.00006103515625
1722925458.61,0,0,3,0,-0.0300,-0.0100,-0.1700,0.0625,0.0000,0.0000,0.99871826171875,0.04949951171875,0.00793457031250,-0.00006103515625
1722925458.62,0,0,3,0,-0.0300,0.0000,-0.1700,0.0000,0.0625,0.0000,0.99871826171875,0.04949951171875,0.00793457031250,-0.00006103515625
1722925458.63,0,0,3,0,-0.0400,-0.0400,-0.1800,0.0000,0.2500,0.0000,0.99871826171875,0.04949951171875,0.00793457031250,-0.00006103515625
1722925458.63,0,0,3,0,-0.0300,-0.0100,-0.1600,-0.0625,0.0625,0.0000,0.99871826171875,0.04949951171875,0.00793457031250,-0.00006103515625
1722925458.64,0,0,3,0,-0.0200,0.0000,-0.1800,0.0000,0.0000,0.0000,0.99871826171875,0.04949951171875,0.00793457031250,-0.00006103515625
1722925458.65,0,0,3,0,-0.0400,-0.0200,-0.1400,0.0000,-0.0625,0.0000,0.99871826171875,0.04949951171875,0.00793457031250,-0.00006103515625
1722925458.66,0,0,3,0,-0.0300,-0.0200,-0.1600,0.0000,0.0000,0.0000,0.99871826171875,0.04949951171875,0.00793457031250,-0.00006103515625
1722925458.68,0,0,3,0,-0.0400,-0.0200,-0.2000,0.0000,0.0625,0.0000,0.99871826171875,0.04949951171875,0.00793457031250,-0.00006103515625
1722925458.69,0,0,3,0,-0.0400,-0.0300,-0.1500,0.0000,0.0000,0.0000,0.99871826171875,0.04949951171875,0.00793457031250,-0.00006103515625
1722925458.70,0,0,3,0,-0.0300,0.0000,-0.2100,0.0000,0.0000,0.0000,0.99871826171875,0.04949951171875,0.00793457031250,-0.00006103515625
1722925458.71,0,0,3,0,-0.0400,-0.0300,-0.1700,0.0000,0.0000,0.0625,0.99871826171875,0.04949951171875,0.00793457031250,-0.00006103515625
1722925458.72,0,0,3,0,-0.0300,0.0000,-0.2000,0.0000,-0.0625,0.1250,0.99871826171875,0.04949951171875,0.00793457031250,-0.00006103515625
1722925458.72,0,0,3,0,-0.0200,-0.0200,-0.2100,0.0000,0.0000,0.0000,0.99871826171875,0.04949951171875,0.00793457031250,-0.00006103515625
1722925458.73,0,0,3,0,-0.0300,-0.0100,-0.1700,0.0000,0.0625,0.0000,0.99871826171875,0.04949951171875,0.00793457031250,-0.00006103515625
1722925458.74,0,0,3,0,-0.0500,-0.0200,-0.1600,0.1250,0.0000,0.0000,0.99871826171875,0.04949951171875,0.00793457031250,-0.00006103515625
1722925458.76,0,0,3,0,-0.0400,-0.0200,-0.1900,0.0000,0.0000,0.0000,0.99871826171875,0.04949951171875,0.00793457031250,-0.00006103515625
1722925458.77,0,0,3,0,-0.0300,-0.0100,-0.1700,0.0000,-0.1250,0.0000,0.99871826171875,0.04949951171875,0.00793457031250,-0.00006103515625
1722925458.78,0,0,3,0,-0.0200,-0.0100,-0.1900,0.1250,-0.1875,0.0625,0.99871826171875,0.04949951171875,0.00793457031250,-0.00006103515625
1722925458.79,0,0,3,0,-0.0300,-0.0400,-0.1800,0.0000,-0.0625,0.0000,0.99871826171875,0.04949951171875,0.00793457031250,-0.00006103515625
1722925458.79,0,0,3,0,-0.0300,-0.0400,-0.1800,0.0000,-0.0625,0.0000,0.99871826171875,0.04949951171875,0.00793457031250,-0.00006103515625
1722925458.80,0,0,3,0,-0.0300,-0.0200,-0.1700,0.0625,0.0000,0.0000,0.99871826171875,0.04949951171875,0.00793457031250,-0.00006103515625
1722925458.80,0,0,3,0,-0.0400,-0.0200,-0.1700,0.0000,0.0000,0.0000,0.99871826171875,0.04949951171875,0.00793457031250,-0.00006103515625
1722925458.83,0,0,3,0,-0.0400,-0.0200,-0.1900,0.0000,0.0625,-0.0625,0.99871826171875,0.04949951171875,0.00793457031250,-0.00006103515625
1722925458.84,0,0,3,0,-0.0400,-0.0300,-0.1900,-0.0625,0.0000,0.0000,0.99871826171875,0.04949951171875,0.00793457031250,-0.00006103515625
1722925458.85,0,0,3,0,-0.0200,-0.0300,-0.1700,0.0000,0.0000,0.0000,0.99871826171875,0.04949951171875,0.00793457031250,-0.00006103515625
1722925458.86,0,0,3,0,-0.0400,-0.0200,-0.1800,0.0000,0.0000,0.0000,0.99871826171875,0.04949951171875,0.00793457031250,-0.00006103515625
1722925458.87,0,0,3,0,-0.0400,-0.0300,-0.1700,0.1250,0.0000,0.0000,0.99871826171875,0.04949951171875,0.00793457031250,-0.00006103515625
1722925458.88,0,0,3,0,-0.0400,-0.0200,-0.1900,0.0000,0.0000,0.0000,0.99871826171875,0.04949951171875,0.00799560546875,-0.00006103515625
1722925458.88,0,0,3,0,-0.0100,-0.0200,-0.1800,0.0000,0.0000,0.0000,0.99871826171875,0.04949951171875,0.00799560546875,-0.00006103515625
1722925458.89,0,0,3,0,-0.0300,-0.0200,-0.1800,-0.0625,0.0000,0.0000,0.99871826171875,0.04949951171875,0.00799560546875,-0.00006103515625
1722925458.90,0,0,3,0,-0.0300,-0.0300,-0.1800,0.0000,0.0000,0.0000,0.99871826171875,0.04949951171875,0.00799560546875,-0.00006103515625
1722925458.92,0,0,3,0,-0.0300,-0.0200,-0.2000,0.0000,0.0000,0.0625,0.99871826171875,0.04949951171875,0.00799560546875,-0.00006103515625
1722925458.93,0,0,3,0,-0.0100,-0.0100,-0.1900,0.0625,0.0000,0.0000,0.99871826171875,0.04949951171875,0.00799560546875,-0.00006103515625
1722925458.94,0,0,3,0,-0.0200,-0.0200,-0.1700,0.1250,0.0000,0.0000,0.99871826171875,0.04949951171875,0.00799560546875,-0.00006103515625
1722925458.95,0,0,3,0,-0.0300,-0.0100,-0.1800,0.0625,0.0000,0.0000,0.99871826171875,0.04949951171875,0.00799560546875,-0.00006103515625
1722925458.96,0,0,3,0,-0.0300,-0.0200,-0.1700,0.0000,-0.1250,0.0000,0.99871826171875,0.04949951171875,0.00799560546875,-0.00006103515625
1722925458.97,0,0,3,0,-0.0400,-0.0100,-0.1800,0.0000,-0.1250,0.0000,0.99871826171875,0.04949951171875,0.00799560546875,-0.00006103515625
1722925458.97,0,0,3,0,-0.0200,-0.0100,-0.1800,0.0000,0.0000,0.0000,0.99871826171875,0.04949951171875,0.00799560546875,-0.00006103515625
1722925458.98,0,0,3,0,-0.0300,-0.0200,-0.1800,0.0000,0.0000,0.0000,0.99871826171875,0.04949951171875,0.00799560546875,-0.00006103515625
1722925459.00,0,0,3,0,-0.0400,-0.0300,-0.1900,0.0000,-0.0625,0.0000,0.99871826171875,0.04949951171875,0.00799560546875,-0.00006103515625
1722925459.01,0,0,3,0,-0.0400,-0.0100,-0.1900,0.0000,0.0000,0.0000,0.99871826171875,0.04949951171875,0.00799560546875,-0.00006103515625
1722925459.02,0,0,3,0,-0.0400,-0.0200,-0.2000,0.0000,0.0000,0.0000,0.99871826171875,0.04949951171875,0.00799560546875,-0.00006103515625
1722925459.03,0,0,3,0,-0.0400,-0.0200,-0.2000,0.0000,0.0000,0.0000,0.99871826171875,0.04949951171875,0.00799560546875,-0.00006103515625
1722925459.04,0,0,3,0,-0.0400,-0.0200,-0.1700,0.1250,0.0000,0.1250,0.99871826171875,0.04949951171875,0.00799560546875,-0.00006103515625
1722925459.05,0,0,3,0,-0.0400,-0.0100,-0.1500,0.0000,0.0000,0.0000,0.99871826171875,0.04949951171875,0.00799560546875,-0.00006103515625
1722925459.05,0,0,3,0,-0.0300,-0.0300,-0.1900,0.0000,0.0000,0.0000,0.99871826171875,0.04949951171875,0.00799560546875,-0.00006103515625
1722925459.06,0,0,3,0,-0.0300,-0.0200,-0.2000,0.0000,0.0000,0.0625,0.99871826171875,0.04949951171875,0.00799560546875,-0.00006103515625
1722925459.08,0,0,3,0,-0.0200,-0.0300,-0.1900,0.0625,-0.0625,0.0000,0.99871826171875,0.04949951171875,0.00799560546875,-0.00006103515625
1722925459.09,0,0,3,0,-0.0300,-0.0100,-0.1800,0.0000,0.0000,0.0000,0.99871826171875,0.04949951171875,0.00799560546875,-0.00006103515625
1722925459.10,0,0,3,0,-0.0500,-0.0200,-0.1700,0.0000,0.0000,0.0000,0.99871826171875,0.04949951171875,0.00799560546875,-0.00006103515625
1722925459.11,0,0,3,0,-0.0300,-0.0100,-0.1500,0.0625,0.0000,0.0000,0.99871826171875,0.04949951171875,0.00799560546875,-0.00006103515625
1722925459.12,0,0,3,0,-0.0600,-0.0300,-0.1600,0.0000,0.0000,0.0000,0.99871826171875,0.04949951171875,0.00799560546875,-0.00006103515625
1722925459.14,0,0,3,0,-0.0500,-0.0200,-0.1900,0.0000,0.0000,0.0000,0.99871826171875,0.04949951171875,0.00799560546875,-0.00006103515625
1722925459.15,0,0,3,0,-0.0300,-0.0200,-0.1700,0.0000,-0.0625,-0.0625,0.99871826171875,0.04949951171875,0.00799560546875,-0.00006103515625
1722925459.16,0,0,3,0,-0.0300,0.0000,-0.1800,0.0000,0.0000,0.0000,0.99871826171875,0.04949951171875,0.00799560546875,-0.00006103515625
1722925459.17,0,0,3,0,-0.0300,-0.0300,-0.2000,0.0000,0.0000,0.0625,0.99871826171875,0.04949951171875,0.00799560546875,-0.00006103515625
1722925459.18,0,0,3,0,-0.0400,-0.0200,-0.1900,0.0000,0.0000,0.0000,0.99871826171875,0.04949951171875,0.00799560546875,-0.00006103515625
1722925459.19,0,0,3,0,-0.0100,-0.0400,-0.1900,0.0000,0.0000,0.0000,0.99871826171875,0.04949951171875,0.00805664062500,-0.00006103515625
1722925459.20,0,0,3,0,-0.0300,-0.0200,-0.1600,0.0000,0.0000,0.0000,0.99871826171875,0.04949951171875,0.00805664062500,-0.00006103515625
1722925459.21,0,0,3,0,-0.0200,-0.0400,-0.1800,-0.0625,0.0000,0.0000,0.99871826171875,0.04949951171875,0.00805664062500,-0.00006103515625
1722925459.22,0,0,3,0,-0.0300,-0.0300,-0.1700,0.0000,0.0000,0.0000,0.99871826171875,0.04949951171875,0.00805664062500,-0.00006103515625
1722925459.22,0,0,3,0,-0.0200,-0.0100,-0.1900,0.0000,0.0000,0.0000,0.99871826171875,0.04949951171875,0.00805664062500,-0.00006103515625
1722925459.24,0,0,3,0,-0.0300,-0.0300,-0.1700,0.1875,0.0000,0.0000,0.99871826171875,0.04949951171875,0.00805664062500,-0.00006103515625
1722925459.25,0,0,3,0,-0.0400,-0.0400,-0.1800,0.0625,0.0000,-0.0625,0.99871826171875,0.04949951171875,0.00805664062500,-0.00006103515625
1722925459.26,0,0,3,0,-0.0300,0.0000,-0.1800,0.1250,0.0000,-0.1250,0.99871826171875,0.04949951171875,0.00805664062500,-0.00006103515625
1722925459.27,0,0,3,0,-0.0400,-0.0200,-0.1700,0.0000,0.0000,0.0000,0.99871826171875,0.04949951171875,0.00805664062500,-0.00006103515625
1722925459.28,0,0,3,0,-0.0300,-0.0300,-0.1900,0.0000,0.1250,0.0000,0.99871826171875,0.04949951171875,0.00805664062500,-0.00006103515625
1722925459.29,0,0,3,0,-0.0200,-0.0200,-0.1800,-0.1250,0.1875,-0.0625,0.99871826171875,0.04949951171875,0.00805664062500,-0.00006103515625
1722925459.30,0,0,3,0,-0.0200,-0.0100,-0.1700,-0.0625,0.1250,0.0000,0.99871826171875,0.04949951171875,0.00805664062500,-0.00006103515625
1722925459.30,0,0,3,0,-0.0200,-0.0100,-0.1800,0.0000,0.0000,0.1250,0.99871826171875,0.04949951171875,0.00805664062500,-0.00006103515625
1722925459.32,0,0,3,0,-0.0300,-0.0300,-0.1900,0.0625,0.0000,0.0000,0.99871826171875,0.04949951171875,0.00805664062500,-0.00006103515625
1722925459.33,0,0,3,0,-0.0400,-0.0200,-0.1900,0.2500,0.0000,-0.0625,0.99871826171875,0.04949951171875,0.00805664062500,-0.00006103515625
1722925459.34,0,0,3,0,-0.0400,-0.0300,-0.1800,0.3125,0.0000,0.0000,0.99871826171875,0.04949951171875,0.00805664062500,-0.00006103515625
1722925459.35,0,0,3,0,-0.0400,-0.0100,-0.1800,0.1250,0.0000,0.0000,0.99871826171875,0.04949951171875,0.00805664062500,-0.00006103515625
1722925459.36,0,0,3,0,-0.0700,-0.0300,-0.1800,0.0000,0.0625,0.0000,0.99871826171875,0.04949951171875,0.00805664062500,-0.00006103515625
1722925459.37,0,0,3,0,-0.0500,-0.0200,-0.1800,0.0000,0.1250,0.0000,0.99871826171875,0.04949951171875,0.00805664062500,-0.00006103515625
1722925459.38,0,0,3,0,-0.0500,-0.0300,-0.1900,0.0000,0.0000,0.0000,0.99871826171875,0.04949951171875,0.00805664062500,-0.00006103515625
1722925459.38,0,0,3,0,-0.0300,-0.0100,-0.1800,0.0000,0.0000,0.0000,0.99871826171875,0.04949951171875,0.00805664062500,-0.00006103515625
1722925459.40,0,0,3,0,-0.0300,-0.0300,-0.1700,-0.1250,0.0000,0.0625,0.99871826171875,0.04949951171875,0.00805664062500,-0.00006103515625
1722925459.41,0,0,3,0,-0.0200,-0.0400,-0.1700,-0.0625,0.0000,0.0625,0.99871826171875,0.04949951171875,0.00805664062500,-0.00006103515625
1722925459.42,0,0,3,0,-0.0200,-0.0200,-0.1700,-0.1250,0.0625,0.0000,0.99871826171875,0.04949951171875,0.00805664062500,-0.00006103515625
1722925459.43,0,0,3,0,0.0000,-0.0300,-0.2000,0.0000,-0.1250,0.0625,0.99871826171875,0.04949951171875,0.00805664062500,-0.00006103515625
1722925459.44,0,0,3,0,0.0000,-0.0200,-0.1700,0.0625,-0.1250,0.0000,0.99871826171875,0.04949951171875,0.00805664062500,-0.00006103515625
1722925459.46,0,0,3,0,-0.0200,0.0000,-0.1900,0.1875,0.0000,0.0000,0.99871826171875,0.04949951171875,0.00805664062500,-0.00006103515625
1722925459.47,0,0,3,0,-0.0300,-0.0300,-0.1600,0.1250,-0.1875,0.0000,0.99871826171875,0.04949951171875,0.00805664062500,-0.00006103515625
1722925459.48,0,0,3,0,-0.0300,-0.0200,-0.1800,0.0625,0.0000,0.0000,0.99871826171875,0.04949951171875,0.00805664062500,-0.00006103515625
1722925459.49,0,0,3,0,-0.0600,-0.0300,-0.1900,0.1250,0.0000,0.0000,0.99871826171875,0.04949951171875,0.00811767578125,-0.00006103515625
1722925459.50,0,0,3,0,-0.0400,-0.0300,-0.1800,0.1250,0.0000,0.0000,0.99871826171875,0.04949951171875,0.00811767578125,-0.00006103515625
1722925459.51,0,0,3,0,-0.0400,-0.0200,-0.1600,-0.0625,0.0000,0.0000,0.99871826171875,0.04949951171875,0.00811767578125,-0.00006103515625
1722925459.52,0,0,3,0,-0.0300,-0.0400,-0.1600,-0.0625,0.0000,0.0000,0.99871826171875,0.04949951171875,0.00811767578125,-0.00006103515625
1722925459.53,0,0,3,0,-0.0300,-0.0100,-0.1900,-0.1875,0.0000,0.0000,0.99871826171875,0.04949951171875,0.00811767578125,-0.00006103515625
1722925459.54,0,0,3,0,-0.0500,-0.0300,-0.1900,-0.1875,0.0625,0.0000,0.99871826171875,0.04949951171875,0.00811767578125,-0.00006103515625
1722925459.55,0,0,3,0,-0.0300,-0.0400,-0.1900,-0.0625,0.0000,0.0625,0.99871826171875,0.04949951171875,0.00811767578125,-0.00006103515625
1722925459.56,0,0,3,0,-0.0200,-0.0200,-0.1600,0.0000,0.0000,0.1250,0.99871826171875,0.04949951171875,0.00811767578125,-0.00006103515625
1722925459.57,0,0,3,0,-0.0100,-0.0100,-0.1700,0.0000,0.0000,0.1250,0.99871826171875,0.04949951171875,0.00811767578125,-0.00006103515625
1722925459.58,0,0,3,0,-0.0300,-0.0400,-0.1900,0.0000,0.0000,-0.0625,0.99871826171875,0.04949951171875,0.00811767578125,-0.00006103515625
1722925459.59,0,0,3,0,-0.0300,-0.0300,-0.1900,0.0625,0.0000,0.0000,0.99871826171875,0.04949951171875,0.00811767578125,-0.00006103515625
1722925459.60,0,0,3,0,-0.0300,0.0000,-0.1800,0.2500,0.0000,-0.0625,0.99871826171875,0.04949951171875,0.00811767578125,-0.00006103515625
1722925459.61,0,0,3,0,-0.0200,-0.0100,-0.1700,0.1875,0.0000,0.0000,0.99871826171875,0.04949951171875,0.00811767578125,-0.00006103515625
1722925459.62,0,0,3,0,-0.0500,0.0000,-0.1900,0.0000,0.0000,0.0000,0.99871826171875,0.04949951171875,0.00811767578125,-0.00006103515625
1722925459.63,0,0,3,0,-0.0400,0.0000,-0.1900,0.0000,0.0000,0.0000,0.99871826171875,0.04949951171875,0.00811767578125,-0.00006103515625
1722925459.64,0,0,3,0,-0.0300,-0.0100,-0.1900,-0.0625,0.0625,0.1875,0.99871826171875,0.04949951171875,0.00811767578125,-0.00006103515625
1722925459.65,0,0,3,0,-0.0300,-0.0400,-0.1900,0.0000,0.0000,0.0000,0.99871826171875,0.04949951171875,0.00811767578125,-0.00006103515625
1722925459.66,0,0,3,0,-0.0400,-0.0200,-0.1800,0.0000,0.0000,0.0625,0.99871826171875,0.04949951171875,0.00811767578125,-0.00006103515625
1722925459.67,0,0,3,0,-0.0300,-0.0400,-0.1700,0.0000,-0.1250,0.0000,0.99871826171875,0.04949951171875,0.00811767578125,-0.00006103515625
1722925459.68,0,0,3,0,-0.0600,-0.0300,-0.1800,0.0000,0.1250,0.0625,0.99871826171875,0.04949951171875,0.00811767578125,-0.00006103515625
1722925459.69,0,0,3,0,-0.0300,-0.0200,-0.1700,0.0000,0.0000,0.0000,0.99871826171875,0.04949951171875,0.00811767578125,-0.00006103515625
1722925459.70,0,0,3,0,-0.0500,-0.0300,-0.1700,0.0000,0.0000,0.0000,0.99871826171875,0.04949951171875,0.00811767578125,-0.00006103515625
1722925459.71,0,0,3,0,-0.0400,-0.0200,-0.1600,0.1250,-0.2500,0.0000,0.99871826171875,0.04949951171875,0.00811767578125,-0.00006103515625
1722925459.72,0,0,3,0,-0.0300,-0.0100,-0.1900,0.1875,0.0000,0.0000,0.99871826171875,0.04949951171875,0.00811767578125,-0.00006103515625
1722925459.73,0,0,3,0,-0.0100,-0.0100,-0.1800,0.2500,0.0000,0.0000,0.99871826171875,0.04949951171875,0.00811767578125,-0.00006103515625
1722925459.74,0,0,3,0,-0.0200,-0.0400,-0.1800,0.0000,0.0000,0.0000,0.99871826171875,0.04949951171875,0.00811767578125,-0.00006103515625
1722925459.75,0,0,3,0,-0.0400,-0.0100,-0.1800,0.0000,0.0000,-0.0625,0.99871826171875,0.04949951171875,0.00811767578125,-0.00006103515625
1722925459.76,0,0,3,0,-0.0200,-0.0200,-0.1800,0.0000,0.0625,-0.1250,0.99871826171875,0.04949951171875,0.00811767578125,-0.00006103515625
1722925459.78,0,0,3,0,-0.0400,-0.0100,-0.1900,0.0000,-0.0625,0.0000,0.99871826171875,0.04949951171875,0.00817871093750,-0.00012207031250
1722925459.79,0,0,3,0,-0.0200,-0.0400,-0.1900,0.2500,-0.1250,0.0000,0.99871826171875,0.04949951171875,0.00817871093750,-0.00012207031250
1722925459.80,0,0,3,0,-0.0400,-0.0300,-0.1900,0.1875,0.0000,0.0000,0.99871826171875,0.04949951171875,0.00817871093750,-0.00012207031250
1722925459.81,0,0,3,0,-0.0300,-0.0200,-0.2000,0.0625,-0.0625,0.0000,0.99871826171875,0.04949951171875,0.00817871093750,-0.00012207031250
1722925459.82,0,0,3,0,-0.0500,-0.0400,-0.1900,0.0000,0.0000,0.0000,0.99871826171875,0.04949951171875,0.00817871093750,-0.00012207031250
1722925459.83,0,0,3,0,-0.0300,-0.0200,-0.1900,-0.1250,0.0625,0.0625,0.99871826171875,0.04949951171875,0.00817871093750,-0.00012207031250
1722925459.84,0,0,3,0,-0.0200,-0.0200,-0.1800,-0.3125,0.1250,0.0625,0.99871826171875,0.04949951171875,0.00817871093750,-0.00012207031250
1722925459.85,0,0,3,0,-0.0200,-0.0400,-0.1700,-0.1875,0.1250,0.0625,0.99871826171875,0.04949951171875,0.00817871093750,-0.00012207031250
1722925459.86,0,0,3,0,-0.0200,-0.0400,-0.1800,0.0000,0.1250,0.0000,0.99871826171875,0.04949951171875,0.00817871093750,-0.00012207031250
1722925459.87,0,0,3,0,-0.0400,-0.0400,-0.1800,0.0000,0.0000,-0.0625,0.99871826171875,0.04949951171875,0.00817871093750,-0.00012207031250
1722925459.88,0,0,3,0,-0.0100,0.0000,-0.1900,0.3125,-0.0625,0.0000,0.99871826171875,0.04949951171875,0.00817871093750,-0.00012207031250
1722925459.89,0,0,3,0,-0.0200,-0.0300,-0.1900,0.2500,-0.1875,0.0000,0.99871826171875,0.04949951171875,0.00817871093750,-0.00012207031250
1722925459.90,0,0,3,0,-0.0400,-0.0100,-0.1700,0.2500,-0.1875,0.0000,0.99871826171875,0.04949951171875,0.00817871093750,-0.00012207031250
1722925459.91,0,0,3,0,-0.0400,-0.0300,-0.1700,0.1250,-0.2500,-0.0625,0.99871826171875,0.04949951171875,0.00817871093750,-0.00012207031250
1722925459.92,0,0,3,0,-0.0400,-0.0100,-0.1600,0.1250,0.0000,0.0000,0.99871826171875,0.04949951171875,0.00817871093750,-0.00012207031250
1722925459.93,0,0,3,0,-0.0100,-0.0300,-0.2000,-0.0625,0.1250,-0.0625,0.99871826171875,0.04949951171875,0.00817871093750,-0.00012207031250
1722925459.94,0,0,3,0,-0.0400,-0.0300,-0.1900,-0.1875,0.2500,0.0000,0.99871826171875,0.04949951171875,0.00817871093750,-0.00012207031250
1722925459.95,0,0,3,0,-0.0200,-0.0200,-0.1600,-0.0625,0.1250,0.0000,0.99871826171875,0.04949951171875,0.00817871093750,-0.00012207031250
1722925459.96,0,0,3,0,0.0000,-0.0200,-0.1600,-0.0625,0.0000,0.0625,0.99871826171875,0.04949951171875,0.00817871093750,-0.00012207031250
1722925459.97,0,0,3,0,-0.0400,-0.0400,-0.1600,-0.0625,0.1875,-0.1250,0.99871826171875,0.04949951171875,0.00817871093750,-0.00012207031250
1722925459.98,0,0,3,0,-0.0500,-0.0300,-0.1700,0.0000,0.1875,0.0000,0.99871826171875,0.04949951171875,0.00817871093750,-0.00012207031250
1722925459.99,0,0,3,0,-0.0300,-0.0400,-0.1700,0.0625,0.0000,0.0000,0.99871826171875,0.04943847656250,0.00817871093750,-0.00012207031250
1722925460.00,0,0,3,0,-0.0400,-0.0300,-0.1700,0.2500,-0.1875,0.0000,0.99871826171875,0.04943847656250,0.00817871093750,-0.00012207031250
1722925460.01,0,0,3,0,-0.0200,0.0000,-0.1600,0.3125,0.0000,0.0000,0.99871826171875,0.04943847656250,0.00817871093750,-0.00012207031250
1722925460.02,0,0,3,0,-0.0200,-0.0300,-0.1900,0.1875,-0.1250,0.0000,0.99871826171875,0.04943847656250,0.00817871093750,-0.00012207031250
1722925460.03,0,0,3,0,-0.0300,-0.0400,-0.1800,0.0000,0.0000,0.0000,0.99871826171875,0.04943847656250,0.00817871093750,-0.00012207031250
1722925460.04,0,0,3,0,-0.0500,-0.0100,-0.1800,-0.2500,0.1875,-0.0625,0.99871826171875,0.04943847656250,0.00817871093750,-0.00012207031250
1722925460.05,0,0,3,0,-0.0400,0.0000,-0.1700,-0.1250,0.0000,-0.0625,0.99871826171875,0.04943847656250,0.00817871093750,-0.00012207031250
1722925460.06,0,0,3,0,-0.0200,-0.0300,-0.1700,0.0000,0.0625,0.0000,0.99871826171875,0.04943847656250,0.00817871093750,-0.00012207031250
1722925460.07,0,0,3,0,-0.0400,-0.0300,-0.1900,0.1875,0.0000,0.0000,0.99871826171875,0.04943847656250,0.00817871093750,-0.00012207031250
1722925460.08,0,0,3,0,-0.0300,0.0000,-0.2000,0.0000,-0.0625,0.0000,0.99871826171875,0.04943847656250,0.00817871093750,-0.00012207031250
1722925460.10,0,0,3,0,-0.0400,-0.0300,-0.1600,0.0000,0.0000,0.0000,0.99871826171875,0.04943847656250,0.00823974609375,-0.00012207031250
1722925460.11,0,0,3,0,-0.0100,-0.0300,-0.1800,0.0000,0.1250,0.0000,0.99871826171875,0.04943847656250,0.00823974609375,-0.00012207031250
1722925460.12,0,0,3,0,-0.0300,-0.0400,-0.1700,0.0625,0.0000,0.0000,0.99871826171875,0.04943847656250,0.00823974609375,-0.00012207031250
1722925460.13,0,0,3,0,-0.0300,-0.0100,-0.1800,0.0000,0.0000,0.0625,0.99871826171875,0.04943847656250,0.00823974609375,-0.00012207031250
1722925460.14,0,0,3,0,-0.0300,-0.0300,-0.1800,0.0000,0.0625,0.0000,0.99871826171875,0.04943847656250,0.00823974609375,-0.00012207031250
1722925460.15,0,0,3,0,-0.0400,-0.0300,-0.1700,-0.0625,0.1250,0.0000,0.99871826171875,0.04943847656250,0.00823974609375,-0.00012207031250
1722925460.16,0,0,3,0,-0.0400,-0.0300,-0.1900,-0.1250,0.0000,0.0000,0.99871826171875,0.04943847656250,0.00823974609375,-0.00012207031250
1722925460.17,0,0,3,0,-0.0400,-0.0400,-0.1600,0.0000,-0.0625,0.0000,0.99871826171875,0.04943847656250,0.00823974609375,-0.00012207031250
1722925460.18,0,0,3,0,-0.0400,-0.0100,-0.1900,0.1250,-0.1875,0.0000,0.99871826171875,0.04943847656250,0.00823974609375,-0.00012207031250
1722925460.19,0,0,3,0,-0.0400,-0.0200,-0.1900,0.1875,-0.1875,0.0625,0.99871826171875,0.04943847656250,0.00823974609375,-0.00012207031250
1722925460.20,0,0,3,0,-0.0200,-0.0100,-0.1700,0.0625,-0.2500,0.0000,0.99871826171875,0.04943847656250,0.00823974609375,-0.00012207031250
1722925460.21,0,0,3,0,-0.0300,-0.0200,-0.1700,0.0000,0.0000,0.1250,0.99871826171875,0.04943847656250,0.00823974609375,-0.00012207031250
1722925460.22,0,0,3,0,-0.0300,-0.0400,-0.1900,0.0000,0.2500,0.0000,0.99871826171875,0.04943847656250,0.00823974609375,-0.00012207031250
1722925460.23,0,0,3,0,-0.0200,-0.0300,-0.1900,-0.1250,0.0000,-0.0625,0.99871826171875,0.04943847656250,0.00823974609375,-0.00012207031250
1722925460.24,0,0,3,0,-0.0300,-0.0100,-0.2000,0.0000,0.0000,0.0000,0.99871826171875,0.04943847656250,0.00823974609375,-0.00012207031250
1722925460.25,0,0,3,0,-0.0200,-0.0200,-0.1800,0.0625,0.0000,0.0000,0.99871826171875,0.04943847656250,0.00823974609375,-0.00012207031250
1722925460.26,0,0,3,0,-0.0300,-0.0300,-0.1600,0.0000,0.0000,0.0000,0.99871826171875,0.04943847656250,0.00823974609375,-0.00012207031250
1722925460.27,0,0,3,0,-0.0200,-0.0300,-0.1800,0.0000,0.0000,0.1875,0.99871826171875,0.04943847656250,0.00823974609375,-0.00012207031250
1722925460.28,0,0,3,0,-0.0200,-0.0300,-0.1900,0.1250,0.0000,0.0000,0.99871826171875,0.04943847656250,0.00823974609375,-0.00012207031250
1722925460.29,0,0,3,0,-0.0400,-0.0300,-0.1800,0.0000,0.0000,0.0000,0.99871826171875,0.04943847656250,0.00823974609375,-0.00012207031250
1722925460.30,0,0,3,0,-0.0300,-0.0200,-0.1800,0.1250,0.0000,0.0625,0.99871826171875,0.04943847656250,0.00823974609375,-0.00012207031250
1722925460.31,0,0,3,0,-0.0600,-0.0300,-0.1600,0.1250,0.0000,0.0000,0.99871826171875,0.04943847656250,0.00823974609375,-0.00012207031250
1722925460.32,0,0,3,0,-0.0300,-0.0200,-0.1600,0.0000,-0.0625,0.0000,0.99871826171875,0.04943847656250,0.00823974609375,-0.00012207031250
1722925460.33,0,0,3,0,-0.0400,-0.0200,-0.1900,0.0000,0.0000,0.0000,0.99871826171875,0.04943847656250,0.00823974609375,-0.00012207031250
1722925460.34,0,0,3,0,-0.0300,-0.0300,-0.1600,0.0000,0.0625,0.0000,0.99871826171875,0.04943847656250,0.00823974609375,-0.00012207031250
1722925460.35,0,0,3,0,-0.0400,-0.0200,-0.1700,-0.0625,0.0000,0.0000,0.99871826171875,0.04943847656250,0.00823974609375,-0.00012207031250
1722925460.36,0,0,3,0,-0.0300,-0.0300,-0.1900,-0.0625,0.0000,0.0000,0.99871826171875,0.04943847656250,0.00823974609375,-0.00012207031250
1722925460.37,0,0,3,0,-0.0100,-0.0300,-0.1500,0.0000,0.0625,0.1875,0.99871826171875,0.04943847656250,0.00823974609375,-0.00012207031250
1722925460.38,0,0,3,0,-0.0100,-0.0200,-0.1900,0.2500,0.0000,0.0000,0.99871826171875,0.04943847656250,0.00823974609375,-0.00012207031250
1722925460.39,0,0,3,0,-0.0200,-0.0300,-0.1800,0.1250,-0.1875,0.0000,0.99871826171875,0.04943847656250,0.00823974609375,-0.00012207031250
1722925460.40,0,0,3,0,-0.0100,-0.0300,-0.1900,0.3125,-0.3125,-0.1250,0.99871826171875,0.04943847656250,0.00830078125000,-0.00012207031250
1722925460.42,0,0,3,0,-0.0400,-0.0100,-0.1800,0.0000,0.0000,0.0000,0.99871826171875,0.04943847656250,0.00830078125000,-0.00012207031250
1722925460.43,0,0,3,0,-0.0600,-0.0200,-0.1800,-0.1250,0.1250,0.0000,0.99871826171875,0.04943847656250,0.00830078125000,-0.00012207031250
1722925460.44,0,0,3,0,-0.0500,0.0000,-0.1800,-0.0625,0.1250,0.0000,0.99871826171875,0.04943847656250,0.00830078125000,-0.00012207031250
1722925460.45,0,0,3,0,-0.0400,-0.0300,-0.1700,0.0000,0.0000,0.0625,0.99871826171875,0.04943847656250,0.00830078125000,-0.00012207031250
1722925460.46,0,0,3,0,-0.0500,-0.0400,-0.1700,0.0000,-0.0625,0.0000,0.99871826171875,0.04943847656250,0.00830078125000,-0.00012207031250
1722925460.47,0,0,3,0,-0.0400,-0.0300,-0.1400,0.0000,-0.0625,0.0000,0.99871826171875,0.04943847656250,0.00830078125000,-0.00012207031250
1722925460.48,0,0,3,0,-0.0200,-0.0200,-0.1900,0.0000,-0.1250,0.0625,0.99871826171875,0.04943847656250,0.00830078125000,-0.00012207031250
1722925460.49,0,0,3,0,-0.0400,-0.0400,-0.1800,-0.0625,0.0000,0.0000,0.99871826171875,0.04943847656250,0.00830078125000,-0.00012207031250
1722925460.50,0,0,3,0,-0.0200,-0.0300,-0.1800,-0.1250,0.0625,0.0000,0.99871826171875,0.04943847656250,0.00830078125000,-0.00012207031250
1722925460.51,0,0,3,0,-0.0100,-0.0400,-0.1600,0.0000,0.0000,0.0000,0.99871826171875,0.04943847656250,0.00830078125000,-0.00012207031250
1722925460.52,0,0,3,0,0.0000,-0.0500,-0.1600,0.0000,-0.0625,-0.1250,0.99871826171875,0.04943847656250,0.00830078125000,-0.00012207031250
1722925460.53,0,0,3,0,-0.0300,-0.0400,-0.1800,0.1250,-0.0625,0.0000,0.99871826171875,0.04943847656250,0.00830078125000,-0.00012207031250
1722925460.54,0,0,3,0,-0.0300,-0.0200,-0.2000,0.0625,-0.0625,0.0000,0.99871826171875,0.04943847656250,0.00830078125000,-0.00012207031250
1722925460.55,0,0,3,0,-0.0200,-0.0200,-0.1900,0.0000,0.0000,0.0000,0.99871826171875,0.04943847656250,0.00830078125000,-0.00012207031250
1722925460.56,0,0,3,0,-0.0300,-0.0100,-0.1900,0.0625,0.0000,0.0000,0.99871826171875,0.04943847656250,0.00830078125000,-0.00012207031250
1722925460.57,0,0,3,0,-0.0300,-0.0200,-0.1900,0.0625,0.0000,-0.0625,0.99871826171875,0.04943847656250,0.00830078125000,-0.00012207031250
1722925460.58,0,0,3,0,-0.0500,-0.0100,-0.2000,0.1250,-0.0625,0.0000,0.99871826171875,0.04943847656250,0.00830078125000,-0.00012207031250
1722925460.59,0,0,3,0,-0.0400,-0.0200,-0.1900,0.0625,0.0000,-0.1250,0.99871826171875,0.04943847656250,0.00830078125000,-0.00012207031250
1722925460.60,0,0,3,0,-0.0500,-0.0200,-0.1500,0.0000,0.0625,0.0000,0.99871826171875,0.04943847656250,0.00830078125000,-0.00012207031250
1722925460.61,0,0,3,0,-0.0300,-0.0300,-0.1800,-0.1250,0.1250,0.0000,0.99871826171875,0.04943847656250,0.00830078125000,-0.00012207031250
1722925460.62,0,0,3,0,-0.0400,-0.0500,-0.1800,-0.1250,0.1875,0.0000,0.99871826171875,0.04943847656250,0.00830078125000,-0.00012207031250
1722925460.63,0,0,3,0,-0.0200,-0.0500,-0.1600,-0.2500,0.1875,0.0000,0.99871826171875,0.04943847656250,0.00830078125000,-0.00012207031250
1722925460.64,0,0,3,0,-0.0200,-0.0200,-0.1700,0.0000,0.0000,0.0000,0.99871826171875,0.04943847656250,0.00830078125000,-0.00012207031250
1722925460.65,0,0,3,0,-0.0300,-0.0600,-0.1800,0.0625,0.0000,0.0625,0.99871826171875,0.04943847656250,0.00830078125000,-0.00012207031250
1722925460.66,0,0,3,0,-0.0300,-0.0300,-0.1800,0.0625,0.0000,0.0000,0.99871826171875,0.04943847656250,0.00830078125000,-0.00012207031250
1722925460.67,0,0,3,0,-0.0200,-0.0300,-0.1900,0.1875,-0.0625,0.0000,0.99871826171875,0.04943847656250,0.00830078125000,-0.00012207031250
1722925460.68,0,0,3,0,-0.0200,-0.0200,-0.1900,0.1250,-0.1250,0.0000,0.99871826171875,0.04943847656250,0.00830078125000,-0.00012207031250
1722925460.69,0,0,3,0,-0.0300,-0.0200,-0.1900,0.0625,-0.1875,0.0000,0.99871826171875,0.04943847656250,0.00830078125000,-0.00012207031250
1722925460.70,0,0,3,0,-0.0200,-0.0300,-0.1800,0.1875,0.0000,0.0000,0.99871826171875,0.04943847656250,0.00830078125000,-0.00012207031250
1722925460.71,0,0,3,0,-0.0300,-0.0100,-0.1700,0.1250,0.0000,0.0000,0.99871826171875,0.04943847656250,0.00836181640625,-0.00012207031250
1722925460.72,0,0,3,0,-0.0200,-0.0100,-0.1800,0.0625,0.0000,0.0000,0.99871826171875,0.04943847656250,0.00836181640625,-0.00012207031250
1722925460.73,0,0,3,0,-0.0200,-0.0300,-0.1800,-0.0625,0.0000,0.0000,0.99871826171875,0.04943847656250,0.00836181640625,-0.00012207031250
1722925460.75,0,0,3,0,-0.0300,-0.0200,-0.1800,0.0000,0.0625,0.0000,0.99871826171875,0.04943847656250,0.00836181640625,-0.00012207031250
1722925460.76,0,0,3,0,-0.0400,-0.0100,-0.1900,0.0000,0.1875,0.0000,0.99871826171875,0.04943847656250,0.00836181640625,-0.00012207031250
1722925460.77,0,0,3,0,-0.0400,-0.0300,-0.1700,0.1250,0.0000,0.0000,0.99871826171875,0.04943847656250,0.00836181640625,-0.00012207031250
1722925460.78,0,0,3,0,-0.0200,-0.0200,-0.1800,0.0625,0.0000,0.0625,0.99871826171875,0.04943847656250,0.00836181640625,-0.00012207031250
1722925460.79,0,0,3,0,-0.0300,-0.0300,-0.1600,0.1250,0.0625,0.0000,0.99871826171875,0.04943847656250,0.00836181640625,-0.00012207031250
1722925460.80,0,0,3,0,-0.0300,-0.0300,-0.1900,0.0000,0.0000,0.0625,0.99871826171875,0.04943847656250,0.00836181640625,-0.00012207031250
1722925460.81,0,0,3,0,-0.0200,-0.0500,-0.1800,0.0000,0.0000,0.0000,0.99871826171875,0.04943847656250,0.00836181640625,-0.00012207031250
1722925460.82,0,0,3,0,-0.0400,-0.0300,-0.1700,0.0000,-0.0625,0.0000,0.99871826171875,0.04943847656250,0.00836181640625,-0.00012207031250
1722925460.83,0,0,3,0,-0.0200,-0.0200,-0.1900,-0.0625,0.0000,0.0000,0.99871826171875,0.04943847656250,0.00836181640625,-0.00012207031250
1722925460.84,0,0,3,0,-0.0400,-0.0300,-0.1700,0.0000,0.0000,0.0000,0.99871826171875,0.04943847656250,0.00836181640625,-0.00012207031250
1722925460.85,0,0,3,0,-0.0200,-0.0200,-0.1800,0.0625,0.0000,0.0625,0.99871826171875,0.04943847656250,0.00836181640625,-0.00012207031250
1722925460.86,0,0,3,0,-0.0200,-0.0300,-0.1700,0.1250,-0.0625,0.0000,0.99871826171875,0.04943847656250,0.00836181640625,-0.00012207031250
1722925460.87,0,0,3,0,-0.0500,-0.0300,-0.1800,0.0000,0.0000,0.0000,0.99871826171875,0.04943847656250,0.00836181640625,-0.00012207031250
1722925460.88,0,0,3,0,-0.0400,-0.0100,-0.2000,0.0625,-0.0625,0.0000,0.99871826171875,0.04943847656250,0.00836181640625,-0.00012207031250
1722925460.89,0,0,3,0,-0.0200,-0.0100,-0.1800,0.0000,0.0000,0.0000,0.99871826171875,0.04943847656250,0.00836181640625,-0.00012207031250
1722925460.90,0,0,3,0,-0.0100,-0.0200,-0.1800,0.0625,0.0000,-0.0625,0.99871826171875,0.04943847656250,0.00836181640625,-0.00012207031250
1722925460.91,0,0,3,0,-0.0200,-0.0300,-0.1700,0.0625,0.0000,0.0000,0.99871826171875,0.04943847656250,0.00836181640625,-0.00012207031250
1722925460.92,0,0,3,0,-0.0300,-0.0200,-0.1700,-0.1250,0.1250,0.0000,0.99871826171875,0.04943847656250,0.00836181640625,-0.00012207031250
1722925460.93,0,0,3,0,-0.0200,-0.0200,-0.1900,0.0000,0.2500,0.0000,0.99871826171875,0.04943847656250,0.00836181640625,-0.00012207031250
1722925460.94,0,0,3,0,-0.0200,-0.0200,-0.1600,0.0000,0.1250,0.0000,0.99871826171875,0.04943847656250,0.00836181640625,-0.00012207031250
1722925460.95,0,0,3,0,-0.0300,-0.0200,-0.1700,0.0000,0.0000,0.0000,0.99871826171875,0.04943847656250,0.00836181640625,-0.00012207031250
1722925460.96,0,0,3,0,-0.0400,-0.0300,-0.1500,0.2500,0.0625,0.0000,0.99871826171875,0.04943847656250,0.00836181640625,-0.00012207031250
1722925460.97,0,0,3,0,-0.0400,-0.0500,-0.1800,0.0625,0.0000,0.0000,0.99871826171875,0.04943847656250,0.00836181640625,-0.00012207031250
1722925460.98,0,0,3,0,-0.0300,-0.0200,-0.1800,0.1250,0.0000,0.0000,0.99871826171875,0.04943847656250,0.00836181640625,-0.00012207031250
1722925460.99,0,0,3,0,-0.0400,-0.0100,-0.1900,0.0625,0.0000,-0.0625,0.99871826171875,0.04943847656250,0.00836181640625,-0.00012207031250
1722925461.00,0,0,3,0,-0.0400,-0.0300,-0.1800,0.0000,-0.0625,0.0000,0.99871826171875,0.04943847656250,0.00836181640625,-0.00012207031250
1722925461.01,0,0,3,0,-0.0200,-0.0200,-0.1900,0.0625,0.0000,0.0000,0.99871826171875,0.04943847656250,0.00836181640625,-0.00012207031250
1722925461.02,0,0,3,0,-0.0400,-0.0100,-0.1700,0.0000,0.0625,0.0000,0.99871826171875,0.04943847656250,0.00842285156250,-0.00012207031250
1722925461.03,0,0,3,0,-0.0200,-0.0300,-0.1900,0.0000,0.0625,0.0000,0.99871826171875,0.04943847656250,0.00842285156250,-0.00012207031250
1722925461.04,0,0,3,0,-0.0400,-0.0400,-0.1700,0.0000,0.0000,0.0000,0.99871826171875,0.04943847656250,0.00842285156250,-0.00012207031250
1722925461.05,0,0,3,0,-0.0300,-0.0300,-0.1700,0.0000,0.0000,0.0000,0.99871826171875,0.04943847656250,0.00842285156250,-0.00012207031250
1722925461.06,0,0,3,0,-0.0500,-0.0100,-0.1600,0.0000,0.0625,0.0000,0.99871826171875,0.04943847656250,0.00842285156250,-0.00012207031250
1722925461.08,0,0,3,0,0.0000,-0.0300,-0.1900,0.1250,0.0000,0.0000,0.99871826171875,0.04943847656250,0.00842285156250,-0.00012207031250
1722925461.09,0,0,3,0,-0.0200,-0.0300,-0.2200,0.0625,-0.0625,0.0625,0.99871826171875,0.04943847656250,0.00842285156250,-0.00012207031250
1722925461.10,0,0,3,0,-0.0400,-0.0100,-0.1700,0.0625,-0.1250,0.0625,0.99871826171875,0.04943847656250,0.00842285156250,-0.00012207031250
1722925461.11,0,0,3,0,-0.0500,-0.0200,-0.1700,0.0000,0.0000,0.0000,0.99871826171875,0.04937744140625,0.00842285156250,-0.00012207031250
1722925461.12,0,0,3,0,-0.0200,-0.0200,-0.1600,0.0000,0.0000,0.0000,0.99871826171875,0.04937744140625,0.00842285156250,-0.00012207031250
1722925461.13,0,0,3,0,-0.0100,-0.0100,-0.1900,-0.0625,0.0625,0.0000,0.99871826171875,0.04937744140625,0.00842285156250,-0.00012207031250
1722925461.14,0,0,3,0,-0.0400,-0.0400,-0.1800,0.0000,0.0000,0.0000,0.99871826171875,0.04937744140625,0.00842285156250,-0.00012207031250
1722925461.15,0,0,3,0,-0.0400,-0.0300,-0.1700,0.0000,0.0000,0.0000,0.99871826171875,0.04937744140625,0.00842285156250,-0.00012207031250
1722925461.16,0,0,3,0,-0.0100,-0.0300,-0.1700,0.0625,0.0000,-0.1250,0.99871826171875,0.04937744140625,0.00842285156250,-0.00012207031250
1722925461.17,0,0,3,0,-0.0300,-0.0400,-0.1700,0.0625,0.0000,0.0000,0.99871826171875,0.04937744140625,0.00842285156250,-0.00012207031250
1722925461.18,0,0,3,0,-0.0300,-0.0100,-0.2000,0.1250,-0.0625,0.0000,0.99871826171875,0.04937744140625,0.00842285156250,-0.00012207031250
1722925461.19,0,0,3,0,-0.0400,-0.0500,-0.1800,0.1250,-0.0625,0.0000,0.99871826171875,0.04937744140625,0.00842285156250,-0.00012207031250
1722925461.20,0,0,3,0,-0.0500,-0.0300,-0.1600,0.0625,-0.1875,0.0000,0.99871826171875,0.04937744140625,0.00842285156250,-0.00012207031250
1722925461.21,0,0,3,0,-0.0300,-0.0200,-0.1900,0.0000,0.0625,0.0000,0.99871826171875,0.04937744140625,0.00842285156250,-0.00012207031250
1722925461.22,0,0,3,0,-0.0400,-0.0100,-0.1700,0.0000,0.0000,0.0000,0.99871826171875,0.04937744140625,0.00842285156250,-0.00012207031250
1722925461.23,0,0,3,0,-0.0300,-0.0300,-0.1800,0.0000,0.0000,0.0000,0.99871826171875,0.04937744140625,0.00842285156250,-0.00012207031250
1722925461.24,0,0,3,0,-0.0500,-0.0300,-0.1900,0.0000,0.0000,-0.0625,0.99871826171875,0.04937744140625,0.00842285156250,-0.00012207031250
1722925461.25,0,0,3,0,-0.0200,-0.0100,-0.1900,0.0000,0.0000,0.0625,0.99871826171875,0.04937744140625,0.00842285156250,-0.00012207031250
1722925461.26,0,0,3,0,-0.0200,-0.0100,-0.1800,0.0625,0.0000,0.0000,0.99871826171875,0.04937744140625,0.00842285156250,-0.00012207031250
1722925461.27,0,0,3,0,-0.0400,-0.0200,-0.1500,0.0000,0.0000,-0.0625,0.99871826171875,0.04937744140625,0.00842285156250,-0.00012207031250
1722925461.28,0,0,3,0,-0.0300,-0.0600,-0.1600,0.0000,0.0000,0.0000,0.99871826171875,0.04937744140625,0.00842285156250,-0.00012207031250
1722925461.29,0,0,3,0,-0.0200,-0.0400,-0.1500,0.0000,-0.1875,0.0000,0.99871826171875,0.04937744140625,0.00842285156250,-0.00012207031250
1722925461.30,0,0,3,0,-0.0400,-0.0300,-0.1700,0.1250,0.0625,0.0000,0.99871826171875,0.04937744140625,0.00842285156250,-0.00012207031250
1722925461.31,0,0,3,0,-0.0400,-0.0300,-0.1800,0.0000,0.0000,0.0000,0.99871826171875,0.04937744140625,0.00842285156250,-0.00012207031250
1722925461.32,0,0,3,0,-0.0400,-0.0500,-0.1900,0.0000,0.0625,0.0000,0.99871826171875,0.04937744140625,0.00842285156250,-0.00012207031250
1722925461.33,0,0,3,0,-0.0300,-0.0300,-0.1700,0.0000,0.1250,0.0000,0.99871826171875,0.04937744140625,0.00842285156250,-0.00012207031250
1722925461.34,0,0,3,0,-0.0400,-0.0400,-0.1900,0.0000,-0.0625,0.0000,0.99871826171875,0.04937744140625,0.00848388671875,-0.00012207031250
1722925461.35,0,0,3,0,-0.0300,-0.0400,-0.1900,0.0625,0.1250,0.0000,0.99871826171875,0.04937744140625,0.00848388671875,-0.00012207031250
1722925461.36,0,0,3,0,-0.0200,-0.0200,-0.1700,0.0000,0.0000,0.0000,0.99871826171875,0.04937744140625,0.00848388671875,-0.00012207031250
1722925461.37,0,0,3,0,-0.0300,-0.0300,-0.1600,0.0625,0.0000,0.0000,0.99871826171875,0.04937744140625,0.00848388671875,-0.00012207031250
1722925461.38,0,0,3,0,-0.0200,-0.0200,-0.2000,0.0000,0.0000,0.0000,0.99871826171875,0.04937744140625,0.00848388671875,-0.00012207031250
1722925461.40,0,0,3,0,-0.0300,-0.0300,-0.1800,0.1250,0.0000,0.0000,0.99871826171875,0.04937744140625,0.00848388671875,-0.00012207031250
1722925461.41,0,0,3,0,-0.0300,-0.0300,-0.1700,0.0000,0.0000,0.0000,0.99871826171875,0.04937744140625,0.00848388671875,-0.00012207031250
1722925461.42,0,0,3,0,-0.0300,-0.0200,-0.1700,0.0000,0.0625,-0.0625,0.99871826171875,0.04937744140625,0.00848388671875,-0.00012207031250
1722925461.43,0,0,3,0,-0.0300,-0.0100,-0.2000,0.0000,0.0000,0.0000,0.99871826171875,0.04937744140625,0.00848388671875,-0.00012207031250
1722925461.44,0,0,3,0,-0.0300,-0.0100,-0.1800,0.0000,0.0000,0.0000,0.99871826171875,0.04937744140625,0.00848388671875,-0.00012207031250
1722925461.45,0,0,3,0,-0.0200,-0.0200,-0.1900,0.0625,0.0000,0.0625,0.99871826171875,0.04937744140625,0.00848388671875,-0.00012207031250
1722925461.46,0,0,3,0,-0.0100,-0.0200,-0.1700,0.0625,0.0000,0.0000,0.99871826171875,0.04937744140625,0.00848388671875,-0.00012207031250
1722925461.47,0,0,3,0,-0.0400,-0.0400,-0.2000,0.0000,0.0000,0.0000,0.99871826171875,0.04937744140625,0.00848388671875,-0.00012207031250
1722925461.48,0,0,3,0,-0.0400,-0.0300,-0.2000,0.1250,0.0000,0.0000,0.99871826171875,0.04937744140625,0.00848388671875,-0.00012207031250
1722925461.49,0,0,3,0,-0.0300,-0.0400,-0.1600,0.0000,0.0000,0.0000,0.99871826171875,0.04937744140625,0.00848388671875,-0.00012207031250
1722925461.50,0,0,3,0,-0.0200,-0.0200,-0.1700,0.0000,0.0000,0.0625,0.99871826171875,0.04937744140625,0.00848388671875,-0.00012207031250
1722925461.51,0,0,3,0,-0.0400,-0.0500,-0.1600,0.0625,0.0000,0.0000,0.99871826171875,0.04937744140625,0.00848388671875,-0.00012207031250
1722925461.52,0,0,3,0,-0.0300,-0.0300,-0.1900,0.0625,0.0000,0.0000,0.99871826171875,0.04937744140625,0.00848388671875,-0.00012207031250
1722925461.53,0,0,3,0,-0.0200,-0.0200,-0.1900,0.0625,0.0000,0.0000,0.99871826171875,0.04937744140625,0.00848388671875,-0.00012207031250
1722925461.54,0,0,3,0,-0.0100,-0.0300,-0.1700,0.0000,-0.0625,0.0000,0.99871826171875,0.04937744140625,0.00848388671875,-0.00012207031250
1722925461.55,0,0,3,0,-0.0200,-0.0200,-0.1800,0.0000,0.0000,0.0000,0.99871826171875,0.04937744140625,0.00848388671875,-0.00012207031250
1722925461.56,0,0,3,0,-0.0500,-0.0300,-0.1700,0.0625,0.1875,0.0000,0.99871826171875,0.04937744140625,0.00848388671875,-0.00012207031250
1722925461.57,0,0,3,0,-0.0500,-0.0300,-0.1800,0.0000,0.0000,0.0000,0.99871826171875,0.04937744140625,0.00848388671875,-0.00012207031250
1722925461.58,0,0,3,0,-0.0400,-0.0200,-0.1800,0.0000,0.0000,0.0000,0.99871826171875,0.04937744140625,0.00848388671875,-0.00012207031250
1722925461.59,0,0,3,0,-0.0200,-0.0400,-0.1900,0.0625,0.0000,0.0000,0.99871826171875,0.04937744140625,0.00848388671875,-0.00012207031250
1722925461.60,0,0,3,0,-0.0200,-0.0500,-0.2000,0.0000,0.0000,-0.0625,0.99871826171875,0.04937744140625,0.00848388671875,-0.00012207031250
1722925461.61,0,0,3,0,-0.0300,-0.0400,-0.1800,-0.0625,0.0000,0.0000,0.99871826171875,0.04937744140625,0.00848388671875,-0.00012207031250
1722925461.62,0,0,3,0,-0.0100,-0.0400,-0.1800,0.0000,-0.0625,0.0000,0.99871826171875,0.04937744140625,0.00848388671875,-0.00012207031250
1722925461.63,0,0,3,0,-0.0300,-0.0100,-0.1500,-0.0625,0.0625,0.0000,0.99871826171875,0.04937744140625,0.00848388671875,-0.00012207031250
1722925461.64,0,0,3,0,-0.0300,-0.0200,-0.1600,-0.1250,0.0000,0.0000,0.99871826171875,0.04937744140625,0.00848388671875,-0.00012207031250
1722925461.65,0,0,3,0,-0.0300,-0.0400,-0.1700,-0.1875,0.1250,-0.0625,0.99871826171875,0.04937744140625,0.00854492187500,-0.00012207031250
1722925461.66,0,0,3,0,-0.0300,-0.0400,-0.1800,0.0000,0.2500,0.0000,0.99871826171875,0.04937744140625,0.00854492187500,-0.00012207031250
1722925461.67,0,0,3,0,-0.0300,-0.0500,-0.1900,0.1250,0.0000,0.0000,0.99871826171875,0.04937744140625,0.00854492187500,-0.00012207031250
1722925461.68,0,0,3,0,-0.0500,-0.0200,-0.1900,0.3125,-0.2500,-0.1250,0.99871826171875,0.04937744140625,0.00854492187500,-0.00012207031250
1722925461.69,0,0,3,0,-0.0400,-0.0200,-0.1900,0.4375,-0.4375,0.0000,0.99871826171875,0.04937744140625,0.00854492187500,-0.00012207031250
1722925461.70,0,0,3,0,-0.0500,-0.0300,-0.1700,0.1250,-0.1875,0.0000,0.99871826171875,0.04937744140625,0.00854492187500,-0.00012207031250
1722925461.72,0,0,3,0,-0.0500,-0.0100,-0.1600,-0.4375,0.3125,0.0000,0.99871826171875,0.04937744140625,0.00854492187500,-0.00012207031250
1722925461.73,0,0,3,0,-0.0300,-0.0500,-0.1800,-0.3125,0.3125,0.0625,0.99871826171875,0.04937744140625,0.00854492187500,-0.00012207031250
1722925461.74,0,0,3,0,-0.0300,-0.0600,-0.1800,-0.1875,0.1250,0.0625,0.99871826171875,0.04937744140625,0.00854492187500,-0.00012207031250
1722925461.75,0,0,3,0,-0.0500,-0.0500,-0.1700,-0.0625,0.2500,0.0000,0.99871826171875,0.04937744140625,0.00854492187500,-0.00012207031250
1722925461.76,0,0,3,0,-0.0300,-0.0100,-0.1500,-0.1250,0.1250,0.0000,0.99871826171875,0.04937744140625,0.00854492187500,-0.00012207031250
1722925461.77,0,0,3,0,0.0000,-0.0300,-0.1700,-0.1875,0.0000,0.0625,0.99871826171875,0.04937744140625,0.00854492187500,-0.00012207031250
1722925461.78,0,0,3,0,0.0000,-0.0300,-0.1900,0.0000,-0.0625,0.0000,0.99871826171875,0.04937744140625,0.00854492187500,-0.00012207031250
1722925461.79,0,0,3,0,-0.0100,-0.0100,-0.1800,0.1875,0.0000,-0.0625,0.99871826171875,0.04937744140625,0.00854492187500,-0.00012207031250
1722925461.80,0,0,3,0,-0.0400,-0.0400,-0.2100,0.5000,0.0000,-0.1875,0.99871826171875,0.04937744140625,0.00854492187500,-0.00012207031250
1722925461.81,0,0,3,0,-0.0500,-0.0100,-0.1900,0.8750,-0.4375,-0.0625,0.99871826171875,0.04943847656250,0.00854492187500,-0.00012207031250
1722925461.82,0,0,3,0,-0.0500,-0.0300,-0.1700,0.6875,-0.6250,0.0000,0.99871826171875,0.04949951171875,0.00848388671875,-0.00012207031250
1722925461.83,0,0,3,0,-0.0400,-0.0400,-0.1800,0.3750,-0.3125,-0.1250,0.99871826171875,0.04949951171875,0.00848388671875,-0.00012207031250
1722925461.84,0,0,3,0,-0.0400,-0.0200,-0.1700,0.0000,0.3750,0.0000,0.99871826171875,0.04949951171875,0.00848388671875,-0.00012207031250
1722925461.85,0,0,3,0,-0.0700,-0.0300,-0.1800,-0.6875,0.4375,0.1250,0.99871826171875,0.04943847656250,0.00848388671875,-0.00012207031250
1722925461.86,0,0,3,0,-0.0400,-0.0400,-0.1900,-0.6875,0.3125,0.0000,0.99871826171875,0.04937744140625,0.00848388671875,-0.00012207031250
1722925461.87,0,0,3,0,-0.0400,-0.0300,-0.1800,-0.5000,0.4375,-0.0625,0.99871826171875,0.04937744140625,0.00848388671875,-0.00012207031250
1722925461.88,0,0,3,0,-0.0400,-0.0400,-0.1900,0.0000,0.0000,-0.1250,0.99871826171875,0.04937744140625,0.00848388671875,-0.00012207031250
1722925461.89,0,0,3,0,-0.0200,-0.0200,-0.1700,0.2500,-0.5000,0.0625,0.99871826171875,0.04937744140625,0.00848388671875,-0.00012207031250
1722925461.90,0,0,3,0,-0.0200,0.0000,-0.1700,0.2500,-0.4375,0.0000,0.99871826171875,0.04937744140625,0.00848388671875,-0.00012207031250
1722925461.91,0,0,3,0,-0.0200,-0.0200,-0.1900,0.0000,0.0625,0.0000,0.99871826171875,0.04937744140625,0.00848388671875,-0.00012207031250
1722925461.92,0,0,3,0,-0.0300,-0.0100,-0.2000,-0.1875,0.5000,-0.1250,0.99871826171875,0.04937744140625,0.00848388671875,-0.00012207031250
1722925461.93,0,0,3,0,-0.0400,-0.0400,-0.1900,-0.1875,0.0000,0.0625,0.99871826171875,0.04937744140625,0.00848388671875,-0.00012207031250
1722925461.94,0,0,3,0,-0.0200,-0.0400,-0.2000,0.1875,-0.2500,0.0625,0.99871826171875,0.04937744140625,0.00848388671875,-0.00012207031250
1722925461.95,0,0,3,0,-0.0400,-0.0400,-0.1600,0.5000,-0.1875,-0.1875,0.99871826171875,0.04937744140625,0.00854492187500,-0.00012207031250
1722925461.96,0,0,3,0,-0.0400,-0.0300,-0.1800,0.1875,-0.0625,0.0000,0.99871826171875,0.04937744140625,0.00854492187500,-0.00012207031250
1722925461.97,0,0,3,0,-0.0500,-0.0200,-0.1900,-0.1875,0.0000,0.0000,0.99871826171875,0.04937744140625,0.00854492187500,-0.00012207031250
1722925461.98,0,0,3,0,-0.0300,-0.0400,-0.1800,-0.3750,0.5000,0.0000,0.99871826171875,0.04937744140625,0.00854492187500,-0.00012207031250
1722925461.99,0,0,3,0,-0.0700,-0.0500,-0.1800,-0.1875,0.3750,-0.1250,0.99871826171875,0.04937744140625,0.00854492187500,-0.00012207031250
1722925462.00,0,0,3,0,-0.0400,-0.0500,-0.1800,0.0625,0.1250,0.0000,0.99871826171875,0.04937744140625,0.00854492187500,-0.00012207031250
1722925462.01,0,0,3,0,-0.0500,-0.0300,-0.1700,0.1250,-0.3125,0.0000,0.99871826171875,0.04937744140625,0.00854492187500,-0.00012207031250
1722925462.02,0,0,3,0,-0.0300,-0.0300,-0.1800,0.0000,-0.3750,0.0000,0.99871826171875,0.04937744140625,0.00854492187500,-0.00012207031250
1722925462.05,0,0,3,0,-0.0400,-0.0300,-0.1800,-0.1875,0.2500,-0.1250,0.99871826171875,0.04937744140625,0.00854492187500,-0.00012207031250
1722925462.05,0,0,3,0,-0.0100,-0.0500,-0.1800,0.0000,-0.0625,0.1875,0.99871826171875,0.04937744140625,0.00854492187500,-0.00012207031250
1722925462.06,0,0,3,0,-0.0100,-0.0400,-0.1700,0.0000,-0.3125,0.0625,0.99871826171875,0.04937744140625,0.00854492187500,-0.00012207031250
1722925462.07,0,0,3,0,0.0000,-0.0100,-0.1800,0.1250,-0.0625,-0.0625,0.99871826171875,0.04937744140625,0.00854492187500,-0.00012207031250
1722925462.08,0,0,3,0,-0.0200,-0.0300,-0.1900,0.1875,0.0000,0.0000,0.99871826171875,0.04937744140625,0.00854492187500,-0.00012207031250
1722925462.09,0,0,3,0,-0.0300,-0.0300,-0.1700,-0.0625,-0.0625,0.0000,0.99871826171875,0.04937744140625,0.00854492187500,-0.00012207031250
1722925462.10,0,0,3,0,-0.0400,-0.0400,-0.1900,0.0000,0.0000,0.0000,0.99871826171875,0.04937744140625,0.00854492187500,-0.00012207031250
1722925462.11,0,0,3,0,-0.0300,-0.0100,-0.1700,-0.0625,0.1250,-0.1250,0.99871826171875,0.04937744140625,0.00854492187500,-0.00012207031250
1722925462.12,0,0,3,0,-0.0300,-0.0200,-0.1600,-0.2500,0.4375,0.0000,0.99871826171875,0.04937744140625,0.00854492187500,-0.00012207031250
1722925462.13,0,0,3,0,-0.0300,-0.0200,-0.1800,-0.1875,0.1250,0.0000,0.99871826171875,0.04931640625000,0.00854492187500,-0.00012207031250
1722925462.14,0,0,3,0,-0.0500,-0.0400,-0.2000,0.0000,-0.1250,0.0000,0.99871826171875,0.04931640625000,0.00854492187500,-0.00012207031250
1722925462.15,0,0,3,0,-0.0500,-0.0200,-0.1900,0.4375,-0.3125,0.0000,0.99871826171875,0.04931640625000,0.00854492187500,-0.00012207031250
1722925462.16,0,0,3,0,-0.0500,-0.0200,-0.1800,0.4375,-0.3125,0.0000,0.99871826171875,0.04931640625000,0.00854492187500,-0.00012207031250
1722925462.17,0,0,3,0,-0.0200,-0.0100,-0.1900,0.0000,-0.1250,0.0625,0.99871826171875,0.04931640625000,0.00854492187500,-0.00012207031250
1722925462.18,0,0,3,0,-0.0300,-0.0500,-0.1900,-0.0625,0.1250,0.0000,0.99871826171875,0.04931640625000,0.00854492187500,-0.00012207031250
1722925462.19,0,0,3,0,-0.0200,-0.0400,-0.1900,-0.3750,0.4375,0.0000,0.99871826171875,0.04931640625000,0.00854492187500,-0.00012207031250
1722925462.20,0,0,3,0,-0.0400,-0.0600,-0.1900,-0.3750,0.1875,0.1250,0.99871826171875,0.04931640625000,0.00854492187500,-0.00012207031250
1722925462.21,0,0,3,0,-0.0100,-0.0300,-0.1800,-0.1875,0.3125,0.0000,0.99871826171875,0.04931640625000,0.00854492187500,-0.00012207031250
1722925462.22,0,0,3,0,-0.0200,-0.0300,-0.1800,0.0000,0.0000,-0.1250,0.99871826171875,0.04931640625000,0.00854492187500,-0.00012207031250
1722925462.23,0,0,3,0,-0.0400,-0.0300,-0.1800,0.0000,0.0000,0.0625,0.99871826171875,0.04931640625000,0.00854492187500,-0.00012207031250
1722925462.24,0,0,3,0,-0.0400,-0.0200,-0.1800,0.0000,0.0000,0.0000,0.99871826171875,0.04931640625000,0.00860595703125,-0.00012207031250
1722925462.25,0,0,3,0,-0.0400,-0.0200,-0.1800,0.0000,0.0000,0.0000,0.99871826171875,0.04931640625000,0.00860595703125,-0.00012207031250
1722925462.26,0,0,3,0,-0.0400,-0.0100,-0.1900,0.1875,-0.1250,-0.0625,0.99871826171875,0.04931640625000,0.00860595703125,-0.00012207031250
1722925462.27,0,0,3,0,-0.0200,-0.0200,-0.1900,0.3125,-0.4375,0.0000,0.99871826171875,0.04931640625000,0.00860595703125,-0.00012207031250
1722925462.28,0,0,3,0,-0.0200,-0.0100,-0.1700,0.0625,-0.0625,0.0000,0.99871826171875,0.04931640625000,0.00860595703125,-0.00012207031250
1722925462.29,0,0,3,0,-0.0200,-0.0100,-0.1500,-0.3125,0.0625,0.0000,0.99871826171875,0.04931640625000,0.00860595703125,-0.00012207031250
1722925462.30,0,0,3,0,-0.0300,-0.0200,-0.1500,-0.8125,0.5000,0.0000,0.99877929687500,0.04925537109375,0.00860595703125,-0.00012207031250
1722925462.31,0,0,3,0,-0.0400,-0.0200,-0.1700,-0.5625,0.6875,0.0000,0.99877929687500,0.04919433593750,0.00866699218750,-0.00012207031250
1722925462.32,0,0,3,0,-0.0100,-0.0700,-0.2100,0.0000,0.0000,0.0000,0.99877929687500,0.04919433593750,0.00866699218750,-0.00012207031250
1722925462.33,0,0,3,0,-0.0300,-0.0500,-0.2100,0.8125,-0.7500,0.0000,0.99871826171875,0.04925537109375,0.00860595703125,-0.00012207031250
1722925462.34,0,0,3,0,-0.0400,-0.0300,-0.1900,1.0625,-0.8125,-0.1250,0.99871826171875,0.04937744140625,0.00854492187500,-0.00012207031250
1722925462.35,0,0,3,0,-0.0400,-0.0100,-0.1800,0.5000,-0.3750,-0.0625,0.99871826171875,0.04937744140625,0.00854492187500,-0.00012207031250
1722925462.38,0,0,3,0,-0.0600,-0.0400,-0.1900,-0.8750,0.6875,0.0000,0.99871826171875,0.04931640625000,0.00860595703125,-0.00012207031250
1722925462.38,0,0,3,0,-0.0400,-0.0500,-0.1900,-0.7500,0.7500,0.1250,0.99877929687500,0.04919433593750,0.00866699218750,-0.00012207031250
1722925462.39,0,0,3,0,-0.0500,-0.0400,-0.1900,-0.1875,0.0000,0.0625,0.99877929687500,0.04919433593750,0.00866699218750,-0.00012207031250
1722925462.40,0,0,3,0,-0.0300,-0.0100,-0.1900,0.1875,-0.1875,0.0625,0.99877929687500,0.04919433593750,0.00866699218750,-0.00012207031250
1722925462.41,0,0,3,0,-0.0400,-0.0300,-0.1400,0.3750,-0.3125,0.0000,0.99877929687500,0.04919433593750,0.00866699218750,-0.00012207031250
1722925462.42,0,0,3,0,-0.0400,-0.0200,-0.1800,0.3125,-0.3125,-0.1250,0.99877929687500,0.04919433593750,0.00866699218750,-0.00012207031250
1722925462.43,0,0,3,0,-0.0100,-0.0300,-0.1900,0.1250,0.0000,0.0000,0.99877929687500,0.04919433593750,0.00866699218750,-0.00012207031250
1722925462.44,0,0,3,0,0.0000,-0.0200,-0.2000,0.1250,-0.1250,0.0000,0.99877929687500,0.04919433593750,0.00866699218750,-0.00012207031250
1722925462.45,0,0,3,0,-0.0200,-0.0300,-0.2000,0.1250,-0.0625,0.0625,0.99877929687500,0.04919433593750,0.00866699218750,-0.00012207031250
1722925462.46,0,0,3,0,-0.0200,-0.0200,-0.1600,0.0000,0.0625,0.0000,0.99877929687500,0.04919433593750,0.00866699218750,-0.00012207031250
1722925462.47,0,0,3,0,-0.0200,-0.0300,-0.1600,-0.3125,0.2500,0.0000,0.99877929687500,0.04919433593750,0.00866699218750,-0.00012207031250
1722925462.48,0,0,3,0,-0.0100,-0.0100,-0.1600,-0.6875,0.2500,0.0000,0.99877929687500,0.04913330078125,0.00866699218750,-0.00012207031250
1722925462.49,0,0,3,0,-0.0400,-0.0500,-0.1600,-0.5000,0.5000,0.0625,0.99877929687500,0.04913330078125,0.00866699218750,-0.00012207031250
1722925462.50,0,0,3,0,-0.0300,-0.0500,-0.1700,-0.3125,0.2500,-0.0625,0.99877929687500,0.04913330078125,0.00866699218750,-0.00012207031250
1722925462.51,0,0,3,0,-0.0200,-0.0300,-0.1800,0.1250,0.0000,-0.0625,0.99877929687500,0.04913330078125,0.00866699218750,-0.00012207031250
1722925462.52,0,0,3,0,-0.0400,-0.0200,-0.1800,0.6875,-0.3750,0.0000,0.99877929687500,0.04919433593750,0.00866699218750,-0.00012207031250
1722925462.53,0,0,3,0,-0.0300,-0.0300,-0.1900,0.8125,-0.5000,-0.1250,0.99871826171875,0.04925537109375,0.00866699218750,-0.00012207031250
1722925462.54,0,0,3,0,-0.0400,-0.0200,-0.1900,0.5625,-0.3125,0.0000,0.99871826171875,0.04931640625000,0.00866699218750,-0.00012207031250
1722925462.55,0,0,3,0,-0.0400,-0.0400,-0.1900,0.0000,-0.0625,0.0000,0.99871826171875,0.04931640625000,0.00866699218750,-0.00012207031250
1722925462.56,0,0,3,0,-0.0100,-0.0400,-0.1700,-0.3125,0.2500,0.0000,0.99871826171875,0.04931640625000,0.00866699218750,-0.00012207031250
1722925462.57,0,0,3,0,-0.0300,-0.0200,-0.1800,-0.3750,0.1875,0.0000,0.99871826171875,0.04931640625000,0.00866699218750,-0.00012207031250
1722925462.58,0,0,3,0,-0.0300,-0.0500,-0.2000,-0.4375,0.1875,0.0000,0.99871826171875,0.04931640625000,0.00872802734375,-0.00012207031250
1722925462.59,0,0,3,0,-0.0400,-0.0400,-0.1700,-0.3125,0.0000,0.0625,0.99871826171875,0.04931640625000,0.00872802734375,-0.00012207031250
1722925462.60,0,0,3,0,-0.0300,-0.0200,-0.1400,0.0000,0.1250,0.0000,0.99871826171875,0.04931640625000,0.00872802734375,-0.00012207031250
1722925462.61,0,0,3,0,-0.0300,-0.0400,-0.1700,0.0000,-0.0625,0.0000,0.99871826171875,0.04931640625000,0.00872802734375,-0.00012207031250
1722925462.62,0,0,3,0,-0.0100,-0.0200,-0.1700,0.1875,-0.1875,0.0000,0.99871826171875,0.04931640625000,0.00872802734375,-0.00012207031250
1722925462.63,0,0,3,0,-0.0200,-0.0200,-0.1800,0.3125,-0.2500,-0.1250,0.99871826171875,0.04931640625000,0.00872802734375,-0.00012207031250
1722925462.64,0,0,3,0,-0.0100,-0.0200,-0.1900,0.3125,-0.2500,0.0000,0.99871826171875,0.04931640625000,0.00872802734375,-0.00012207031250
1722925462.65,0,0,3,0,-0.0300,-0.0100,-0.1800,0.1250,0.0000,-0.0625,0.99871826171875,0.04931640625000,0.00872802734375,-0.00012207031250
1722925462.66,0,0,3,0,-0.0300,0.0000,-0.1900,-0.1875,0.0000,0.0000,0.99871826171875,0.04931640625000,0.00872802734375,-0.00012207031250
1722925462.67,0,0,3,0,-0.0300,-0.0400,-0.2000,-0.3750,0.2500,0.0000,0.99871826171875,0.04931640625000,0.00872802734375,-0.00012207031250
1722925462.70,0,0,3,0,-0.0300,-0.0300,-0.1600,-0.1250,0.0625,0.0000,0.99871826171875,0.04931640625000,0.00872802734375,-0.00012207031250
1722925462.70,0,0,3,0,-0.0500,-0.0200,-0.1500,0.0000,-0.0625,0.0000,0.99871826171875,0.04931640625000,0.00872802734375,-0.00012207031250
1722925462.71,0,0,3,0,-0.0300,-0.0200,-0.1600,0.0000,-0.0625,-0.1250,0.99871826171875,0.04931640625000,0.00872802734375,-0.00012207031250
1722925462.72,0,0,3,0,-0.0600,-0.0500,-0.1800,0.0000,-0.0625,0.0000,0.99871826171875,0.04931640625000,0.00872802734375,-0.00012207031250
1722925462.73,0,0,3,0,-0.0200,-0.0400,-0.1900,0.1875,-0.1250,0.0625,0.99871826171875,0.04931640625000,0.00872802734375,-0.00012207031250
1722925462.74,0,0,3,0,-0.0300,-0.0700,-0.1900,0.0000,-0.1250,-0.0625,0.99871826171875,0.04931640625000,0.00872802734375,-0.00012207031250
1722925462.75,0,0,3,0,-0.0300,-0.0200,-0.1700,0.0000,0.0000,0.0625,0.99871826171875,0.04931640625000,0.00872802734375,-0.00012207031250
1722925462.76,0,0,3,0,-0.0200,-0.0300,-0.1500,0.0000,0.0625,0.0000,0.99871826171875,0.04931640625000,0.00872802734375,-0.00012207031250
1722925462.77,0,0,3,0,-0.0200,-0.0300,-0.1700,-0.0625,0.0000,0.0000,0.99871826171875,0.04931640625000,0.00872802734375,-0.00012207031250
1722925462.78,0,0,3,0,-0.0300,-0.0400,-0.1700,-0.1250,0.1250,0.0000,0.99871826171875,0.04931640625000,0.00872802734375,-0.00012207031250
1722925462.79,0,0,3,0,-0.0200,-0.0500,-0.1700,-0.0625,0.1875,0.0000,0.99871826171875,0.04931640625000,0.00872802734375,-0.00012207031250
1722925462.80,0,0,3,0,-0.0300,-0.0400,-0.1900,0.0000,0.0000,0.0000,0.99871826171875,0.04931640625000,0.00872802734375,-0.00012207031250
1722925462.81,0,0,3,0,-0.0300,-0.0100,-0.1700,0.0625,0.0000,0.0000,0.99871826171875,0.04931640625000,0.00872802734375,-0.00012207031250
1722925462.82,0,0,3,0,-0.0500,-0.0200,-0.2100,0.1875,0.0000,-0.0625,0.99871826171875,0.04931640625000,0.00872802734375,-0.00012207031250
