timestamp,calib_mag,calib_accel,calib_gyro,calib_sys,lacc_x,lacc_y,lacc_z,gyro_x,gyro_y,gyro_z
1721017586.72,0,0,0,0,0.0000,0.0000,0.0000,0.0000,0.0000,0.0000
1721017586.73,0,0,0,0,0.0000,0.0000,0.0000,0.0625,0.0000,0.0000
1721017586.74,0,0,0,0,0.0000,0.0000,0.0000,0.0000,0.2500,-0.0625
1721017586.75,0,0,0,0,0.0000,0.0000,0.0000,-0.0625,0.0000,0.0625
1721017586.76,0,0,0,0,0.0000,0.0000,0.0000,0.0000,-0.7500,0.1250
1721017586.77,0,0,0,0,0.0000,0.0000,0.0000,0.0000,-0.1875,0.0625
1721017586.78,0,0,0,0,0.0000,0.0000,0.0000,0.0000,0.3750,0.0000
1721017586.79,0,0,0,0,-0.7700,-2.3500,-0.4500,0.0000,-0.1250,0.0625
1721017586.79,0,0,0,0,-0.7400,-2.3600,-0.4600,0.0000,-0.5625,0.0000
1721017586.81,0,0,0,0,-0.7600,-2.3400,-0.4700,-0.0625,0.0000,0.0000
1721017586.82,0,0,0,0,-0.7700,-2.3600,-0.4600,0.0000,0.3750,0.1250
1721017586.83,0,0,0,0,-0.7700,-2.3800,-0.4700,0.0000,-0.2500,0.0000
1721017586.84,0,0,0,0,0.0200,0.0500,-0.1900,0.0625,-0.6250,0.0000
1721017586.85,0,0,0,0,0.0100,0.0300,-0.1200,0.0000,0.2500,0.0000
1721017586.86,0,0,0,0,0.0000,0.0300,-0.1200,0.0000,-0.3125,0.0000
1721017586.87,0,0,0,0,0.0100,0.0500,-0.1700,0.0000,-0.3750,0.0625
1721017586.87,0,0,0,0,0.0000,0.0400,-0.1200,0.0000,0.1875,-0.0625
1721017586.89,0,0,0,0,0.0000,0.0500,-0.1000,0.0000,0.3125,-0.0625
1721017586.90,0,0,0,0,0.0100,0.0400,-0.1400,0.0000,-0.5625,0.0000
1721017586.91,0,0,0,0,0.0100,0.0300,-0.1500,0.0000,-0.1875,0.0000
1721017586.92,0,0,0,0,0.0000,0.0400,-0.1100,-0.0625,0.3750,0.0000
1721017586.93,0,0,0,0,-0.0100,0.0400,-0.1600,0.0000,-0.1875,0.0625
1721017586.94,0,0,0,0,0.0200,0.0500,-0.1400,0.0000,-0.6250,0.1250
1721017586.95,0,0,0,0,0.0200,0.0400,-0.1500,-0.0625,0.0000,0.0625
1721017586.96,0,0,0,0,0.0000,0.0300,-0.1800,-0.1250,0.2500,0.0000
1721017586.97,0,0,0,0,0.0100,0.0300,-0.1400,0.0000,-0.6250,0.0000
1721017586.98,0,0,0,0,0.0200,0.0700,-0.1200,0.1250,-0.3750,0.0000
1721017586.99,0,0,0,0,0.0000,0.0500,-0.1400,0.0000,0.1250,0.0625
1721017587.00,0,0,0,0,0.0000,0.0500,-0.1500,-0.1250,0.2500,0.0000
1721017587.01,0,0,0,0,0.0000,0.0300,-0.1400,0.0000,-0.4375,0.0000
1721017587.02,0,0,0,0,0.0100,0.0500,-0.1200,0.0000,-0.3125,0.0000
1721017587.03,0,0,0,0,0.0000,0.0400,-0.1400,0.0000,0.1250,0.0000
1721017587.04,0,0,0,0,-0.0100,0.0600,-0.1400,0.0000,0.0000,0.0625
1721017587.04,0,0,0,0,0.0000,0.0500,-0.1300,0.0000,-0.5000,0.0625
1721017587.06,0,0,0,0,0.0000,0.0500,-0.1200,0.0000,-0.1875,0.1250
1721017587.07,0,0,0,0,0.0000,0.0500,-0.1500,-0.1250,0.3750,0.0625
1721017587.08,0,0,0,0,0.0000,0.0700,-0.1700,0.0000,-0.0625,0.0625
1721017587.09,0,0,0,0,0.0200,0.0500,-0.0900,0.0000,-0.5625,0.0625
1721017587.10,0,0,0,0,0.0100,0.0700,-0.1400,0.0000,-0.3750,0.0000
1721017587.11,0,0,0,0,0.0000,0.0600,-0.1500,-0.0625,0.4375,0.0000
1721017587.12,0,0,0,0,-0.0100,0.0500,-0.1300,-0.0625,0.0625,0.0625
1721017587.12,0,0,0,0,0.0300,0.0800,-0.1300,0.0625,-0.7500,0.0000
1721017587.14,0,0,0,0,0.0100,0.0600,-0.1500,0.0000,-0.0625,0.0625
1721017587.15,0,0,0,0,0.0100,0.0500,-0.1400,-0.1250,0.1250,0.0000
1721017587.16,0,0,0,0,0.0100,0.0700,-0.1200,0.0000,-0.3750,0.0000
1721017587.17,0,0,0,0,0.0200,0.0400,-0.1100,0.0000,-0.4375,0.0625
1721017587.18,0,0,0,0,0.0100,0.0400,-0.1400,0.0000,0.2500,0.0000
1721017587.19,0,0,0,0,0.0100,0.0400,-0.1200,-0.0625,0.0000,0.0000
1721017587.20,0,0,0,0,0.0200,0.0700,-0.1500,0.0000,-0.5625,0.0625
1721017587.21,0,0,0,0,0.0200,0.0600,-0.1400,-0.1250,-0.1875,0.0625
1721017587.22,0,0,0,0,0.0000,0.0500,-0.1400,-0.1250,0.3750,0.0000
1721017587.23,0,0,0,0,0.0000,0.0700,-0.1400,0.0000,-0.0625,0.0625
1721017587.24,0,0,0,0,0.0100,0.0500,-0.1400,0.0000,-0.5000,0.0625
1721017587.25,0,0,0,0,0.0100,0.0700,-0.1400,0.0000,0.0000,0.2500
1721017587.26,0,0,0,0,0.0000,0.0400,-0.1400,0.0000,0.1250,0.0000
1721017587.27,0,0,0,0,0.0300,0.0600,-0.1300,0.0000,-0.2500,0.0625
1721017587.28,0,0,0,0,0.0000,0.0600,-0.1300,0.0000,-0.1250,-0.0625
1721017587.29,0,0,0,0,0.0100,0.0600,-0.1300,0.0000,0.1250,0.0000
1721017587.30,0,0,0,0,0.0000,0.0400,-0.1400,0.0625,0.0000,0.0000
1721017587.31,0,0,0,0,0.0100,0.0500,-0.1300,0.0000,-0.1875,0.0000
1721017587.32,0,0,0,0,-0.0100,0.0500,-0.1500,0.0000,-0.0625,0.0000
1721017587.33,0,0,0,0,0.0000,0.0500,-0.1000,0.0000,0.0000,0.0625
1721017587.34,0,0,0,0,0.0000,0.0400,-0.1300,0.0000,-0.1875,0.0000
1721017587.35,0,0,0,0,0.0000,0.0600,-0.1300,-0.0625,0.0000,0.0625
1721017587.36,0,0,0,0,0.0000,0.0600,-0.1400,0.0000,0.0000,0.0000
1721017587.37,0,0,0,0,0.0200,0.0500,-0.1400,0.0000,-0.1250,0.0000
1721017587.38,0,0,0,0,0.0000,0.0500,-0.1300,-0.0625,-0.2500,0.0625
1721017587.39,0,0,0,0,0.0000,0.0400,-0.1200,0.0000,-0.2500,0.0625
1721017587.40,0,0,0,0,0.0100,0.0500,-0.1500,0.0625,0.0000,0.0000
1721017587.41,0,0,0,0,0.0000,0.0500,-0.1200,0.0000,-0.2500,0.0000
1721017587.42,0,0,0,0,0.0000,0.0600,-0.1200,0.1250,-0.3125,0.0000
1721017587.43,0,0,0,0,0.0100,0.0700,-0.1400,0.0000,-0.2500,0.0000
1721017587.44,0,0,0,0,0.0000,0.0600,-0.1300,0.0000,0.1250,0.0000
1721017587.45,0,0,0,0,0.0100,0.0700,-0.1500,0.0000,0.0000,0.0625
1721017587.46,0,0,0,0,0.0000,0.0500,-0.1500,-0.1250,0.0000,0.1250
1721017587.47,0,0,0,0,0.0000,0.0400,-0.1100,0.0000,0.0000,0.0000
1721017587.48,0,0,0,0,0.0000,0.0400,-0.1000,0.0000,-0.1250,0.0625
1721017587.49,0,0,0,0,-0.0100,0.0600,-0.1500,0.0000,-0.1875,0.0625
1721017587.50,0,0,0,0,0.0000,0.0500,-0.1500,0.0625,0.1250,0.0000
1721017587.51,0,0,0,0,0.0000,0.0400,-0.1300,0.0000,-0.5000,0.1250
1721017587.52,0,0,0,0,0.0000,0.0500,-0.1400,0.0625,-0.3750,0.0000
1721017587.53,0,0,0,0,0.0000,0.0600,-0.1400,0.0000,0.1250,0.0000
1721017587.54,0,0,0,0,0.0000,0.0500,-0.1100,0.0000,0.0000,0.0000
1721017587.55,0,0,0,0,0.0000,0.0600,-0.1200,0.0000,-0.4375,0.0625
1721017587.56,0,0,0,0,0.0100,0.0500,-0.1500,0.1250,-0.1250,0.0625
1721017587.57,0,0,0,0,0.0000,0.0600,-0.1200,-0.0625,0.0625,0.0000
1721017587.58,0,0,0,0,0.0000,0.0500,-0.1200,0.0000,-0.1250,0.0000
1721017587.59,0,0,0,0,0.0200,0.0500,-0.1300,0.0000,-0.3125,0.1250
1721017587.60,0,0,0,0,0.0000,0.0600,-0.1400,0.0000,-0.1875,0.1250
1721017587.61,0,0,0,0,0.0000,0.0500,-0.1600,-0.0625,-0.1875,0.0000
1721017587.62,0,1,0,0,0.0100,0.0600,-0.1100,0.0000,0.0000,0.0000
1721017587.63,0,1,0,0,0.0100,0.0600,-0.1100,0.0000,-0.1875,0.0000
1721017587.64,0,1,0,0,-0.0100,0.0600,-0.1200,0.0000,0.0000,0.0625
1721017587.65,0,1,0,0,0.0000,0.0600,-0.1600,0.0000,0.0000,0.0000
1721017587.66,0,1,0,0,0.0200,0.0600,-0.1100,0.0000,-0.0625,0.0625
1721017587.67,0,1,0,0,0.0200,0.0600,-0.1400,0.0000,-0.1875,0.0000
1721017587.68,0,1,0,0,0.0100,0.0700,-0.1300,-0.1250,0.0000,0.0000
1721017587.69,0,1,0,0,0.0100,0.0600,-0.1300,0.0000,-0.1250,0.1250
1721017587.70,0,1,0,0,-0.0100,0.0600,-0.1300,0.0000,-0.3125,0.0000
1721017587.71,0,1,0,0,0.0000,0.0700,-0.1100,0.0000,-0.2500,0.0625
1721017587.72,0,1,0,0,0.0100,0.0500,-0.1200,0.0000,0.0000,0.0000
1721017587.73,0,1,0,0,0.0000,0.0600,-0.1100,0.0000,-0.1875,0.1250
1721017587.74,0,1,0,0,0.0000,0.0600,-0.1000,0.0000,-0.2500,0.0625
1721017587.75,0,1,0,0,0.0000,0.0400,-0.1300,0.0000,0.0625,0.0000
1721017587.76,0,1,0,0,0.0000,0.0500,-0.1400,-0.0625,0.0000,0.0000
1721017587.77,0,1,0,0,0.0000,0.0400,-0.1100,-0.1250,-0.3125,0.0625
1721017587.78,0,1,0,0,0.0000,0.0800,-0.1100,-0.0625,-0.0625,0.1250
1721017587.79,0,1,0,0,0.0000,0.0500,-0.1300,0.0000,-0.1250,0.0000
1721017587.80,0,1,0,0,0.0000,0.0600,-0.1300,-0.0625,-0.1875,0.0000
1721017587.81,0,1,0,0,0.0100,0.0800,-0.1300,0.0000,-0.3125,0.1250
1721017587.82,0,1,0,0,0.0200,0.0700,-0.1400,0.0625,-0.1875,0.0000
1721017587.83,0,1,0,0,0.0000,0.0700,-0.1300,0.1250,0.0000,0.0000
1721017587.84,0,1,0,0,0.0000,0.0700,-0.1400,-0.1250,0.0000,0.0000
1721017587.85,0,1,0,0,0.0000,0.0500,-0.1300,0.0000,-0.2500,0.0000
1721017587.86,0,1,0,0,0.0000,0.0700,-0.1400,-0.1250,-0.2500,0.0000
1721017587.87,0,1,0,0,0.0000,0.0600,-0.1200,0.0000,0.2500,0.0625
1721017587.88,0,1,0,0,0.0200,0.0600,-0.1600,0.0000,0.0625,0.0625
1721017587.89,0,1,0,0,0.0100,0.0600,-0.1300,0.0000,-0.0625,0.0000
1721017587.90,0,1,0,0,-0.0100,0.0600,-0.1400,0.0000,-0.0625,0.0625
1721017587.91,0,1,0,0,0.0000,0.0400,-0.1100,0.0000,-0.1875,0.0000
1721017587.92,0,1,0,0,0.0000,0.0500,-0.1300,-0.0625,0.0000,0.0000
1721017587.93,0,1,1,0,0.0000,0.0600,-0.1200,0.0000,0.0000,0.0000
1721017587.94,0,1,1,0,0.0000,0.0600,-0.1400,0.0000,0.0000,0.0000
1721017587.95,0,1,1,0,0.0200,0.0600,-0.1300,0.1250,0.0625,0.0000
1721017587.96,0,1,1,0,0.0000,0.0800,-0.1200,0.0000,0.0000,0.0000
1721017587.97,0,1,1,0,0.0000,0.0800,-0.1100,0.0000,-0.0625,0.0000
1721017587.98,0,1,1,0,0.0000,0.0600,-0.1000,0.0000,0.0000,0.0000
1721017587.99,0,1,1,0,0.0000,0.0600,-0.1400,0.0000,0.0000,0.0000
1721017588.00,0,1,1,0,0.0200,0.0800,-0.1300,0.0000,0.0000,0.0000
1721017588.01,0,1,1,0,0.0000,0.0400,-0.1400,0.0625,0.1250,-0.0625
1721017588.02,0,1,1,0,0.0000,0.0600,-0.1200,0.0000,0.0625,0.0000
1721017588.03,0,1,1,0,0.0100,0.0600,-0.1300,0.0000,0.0000,0.0000
1721017588.04,0,1,1,0,0.0100,0.0900,-0.1400,0.0000,0.0000,0.0625
1721017588.05,0,1,1,0,0.0000,0.0500,-0.1400,0.0000,0.0000,0.0000
1721017588.06,0,1,1,0,0.0000,0.0700,-0.1200,0.0000,-0.0625,0.0000
1721017588.07,0,1,1,0,0.0100,0.0700,-0.1400,0.0000,-0.0625,0.0000
1721017588.08,0,1,1,0,0.0100,0.0500,-0.1600,0.0625,0.0000,0.0000
1721017588.09,0,1,1,0,0.0000,0.0600,-0.1300,0.0000,0.0000,0.0000
1721017588.10,0,1,1,0,0.0200,0.0500,-0.1300,0.0000,-0.0625,0.0000
1721017588.11,0,1,1,0,0.0100,0.0400,-0.1200,0.0000,0.0000,0.0000
1721017588.12,0,1,1,0,0.0100,0.0700,-0.1000,0.0000,0.1875,0.0000
1721017588.13,0,1,1,0,0.0000,0.0600,-0.1300,0.0000,0.0000,0.0000
1721017588.14,0,1,1,0,0.0000,0.0500,-0.1400,0.0000,-0.1875,0.0000
1721017588.15,0,1,1,0,0.0000,0.0700,-0.1700,0.0000,-0.1250,0.0000
1721017588.16,0,1,1,0,0.0000,0.0600,-0.1200,0.0000,0.1250,0.0000
1721017588.17,0,1,1,0,0.0000,0.0700,-0.1300,0.0000,-0.0625,0.0000
1721017588.18,0,1,1,0,0.0200,0.0500,-0.1400,0.0625,-0.0625,0.0000
1721017588.19,0,1,1,0,0.0200,0.0500,-0.1400,0.0625,0.0000,0.0000
1721017588.20,0,1,1,0,0.0100,0.0600,-0.1400,0.1250,0.0000,0.0000
1721017588.21,0,1,1,0,0.0000,0.0400,-0.1300,0.0000,-0.1875,0.0000
1721017588.22,0,1,1,0,0.0000,0.0300,-0.1500,0.0625,-0.1250,0.0000
1721017588.23,0,1,1,0,0.0000,0.0700,-0.1400,0.0000,0.0000,0.0000
1721017588.24,0,1,1,0,0.0200,0.0600,-0.1000,0.0000,0.0000,0.0000
1721017588.25,0,1,1,0,0.0100,0.0700,-0.1300,0.0625,0.0000,0.0000
1721017588.26,0,1,1,0,0.0100,0.0400,-0.1200,0.0000,-0.0625,0.0000
1721017588.27,0,1,1,0,0.0100,0.0800,-0.1500,0.1250,-0.1875,0.0000
1721017588.28,0,1,1,0,0.0000,0.0400,-0.1100,0.0000,0.0000,0.0000
1721017588.29,0,1,1,0,0.0000,0.0600,-0.1200,0.0000,0.0000,0.0000
1721017588.30,0,1,1,0,0.0100,0.0600,-0.1000,0.0000,-0.1250,0.0000
1721017588.31,0,1,1,0,0.0000,0.0500,-0.1200,0.0000,0.0000,0.0000
1721017588.32,0,1,1,0,0.0000,0.0700,-0.1600,0.0000,-0.1875,0.0000
1721017588.33,0,1,1,0,0.0100,0.0700,-0.1400,0.0000,0.0000,0.0000
1721017588.34,0,1,1,0,0.0100,0.0700,-0.1200,0.0625,0.0000,0.0625
1721017588.35,0,1,1,0,0.0000,0.0700,-0.1300,0.0000,0.0000,0.0000
1721017588.36,0,1,1,0,0.0300,0.0700,-0.1400,0.0000,0.0000,0.1250
1721017588.37,0,1,1,0,0.0100,0.0600,-0.1300,0.0625,0.0000,0.0000
1721017588.38,0,1,1,0,0.0000,0.0500,-0.1200,0.0000,0.0000,0.0000
1721017588.39,0,1,1,0,0.0000,0.0700,-0.1300,0.0000,0.0000,0.0625
1721017588.40,0,1,1,0,0.0000,0.0700,-0.1400,0.0000,0.0000,-0.0625
1721017588.41,0,1,1,0,0.0000,0.0700,-0.1400,0.1250,0.0000,0.0000
1721017588.42,0,1,1,0,0.0100,0.0600,-0.1300,0.1250,0.0000,-0.0625
1721017588.43,0,1,2,0,0.0000,0.0500,-0.1200,0.0000,0.0000,0.0000
1721017588.44,0,1,2,0,0.0000,0.0600,-0.1200,0.0625,0.0000,0.0000
1721017588.45,0,1,2,0,0.0000,0.0400,-0.1500,0.0000,0.1250,0.0000
1721017588.46,0,1,2,0,0.0200,0.0500,-0.1400,0.0000,0.0000,0.0000
1721017588.47,0,1,2,0,0.0100,0.0600,-0.1300,0.0000,0.0000,0.0000
1721017588.48,0,1,2,0,0.0000,0.0600,-0.1400,0.0000,-0.0625,0.0000
1721017588.49,0,1,2,0,0.0300,0.0500,-0.1200,0.0000,0.0625,0.0000
1721017588.50,0,1,2,0,0.0000,0.0400,-0.1300,0.0000,0.0000,0.0000
1721017588.51,0,1,2,0,-0.0100,0.0800,-0.1000,0.0000,-0.1250,0.0000
1721017588.52,0,1,2,0,0.0000,0.0700,-0.1400,0.0000,0.0000,0.0000
1721017588.53,0,1,2,0,0.0200,0.0600,-0.1100,0.0000,0.0000,0.0000
1721017588.54,0,1,2,0,0.0000,0.0600,-0.1000,0.0000,0.0000,0.0000
1721017588.55,0,1,2,0,0.0000,0.0600,-0.1200,0.0000,0.1875,0.0000
1721017588.56,0,1,2,0,0.0000,0.0500,-0.1500,0.0000,0.0625,0.0000
1721017588.57,0,1,2,0,0.0000,0.0500,-0.1300,0.0000,-0.0625,0.0000
1721017588.58,0,1,2,0,0.0100,0.0700,-0.1200,0.0000,0.0000,0.0000
1721017588.59,0,1,2,0,0.0000,0.0500,-0.1300,0.0625,-0.0625,-0.0625
1721017588.60,0,1,2,0,0.0100,0.0600,-0.1600,0.0000,0.0000,0.0000
1721017588.61,0,1,2,0,0.0100,0.0500,-0.1200,0.0000,-0.1875,0.0000
1721017588.62,0,1,2,0,0.0000,0.0600,-0.1300,0.1875,-0.0625,0.0000
1721017588.63,0,1,2,0,0.0100,0.0600,-0.1200,0.0000,0.0000,0.0000
1721017588.64,0,1,2,0,0.0000,0.0400,-0.1300,0.0000,-0.3125,0.0000
1721017588.65,0,1,2,0,0.0100,0.0500,-0.1300,0.0000,-0.0625,0.0000
1721017588.66,0,1,2,0,0.0000,0.0700,-0.1300,0.0000,0.1250,-0.0625
1721017588.67,0,1,2,0,0.0000,0.0400,-0.1000,0.0000,0.0000,0.0000
1721017588.68,0,1,2,0,0.0100,0.0600,-0.1100,0.0625,0.0625,0.0000
1721017588.69,0,1,2,0,0.0100,0.0600,-0.1300,0.0000,0.1875,0.0000
1721017588.70,0,1,2,0,0.0000,0.0400,-0.1500,0.0000,0.0000,0.0000
1721017588.71,0,1,2,0,0.0000,0.0600,-0.1500,0.0000,0.0000,0.0000
1721017588.72,0,1,2,0,0.0000,0.0600,-0.1100,0.0000,0.0000,0.0000
1721017588.73,0,1,2,0,0.0100,0.0500,-0.1300,-0.0625,-0.1250,0.0000
1721017588.74,0,1,2,0,0.0000,0.0400,-0.1200,0.0000,0.0000,0.0000
1721017588.75,0,1,2,0,0.0100,0.0600,-0.1300,0.0000,0.0000,-0.1250
1721017588.76,0,1,2,0,0.0200,0.0600,-0.1200,0.0000,0.1250,0.0000
1721017588.77,0,1,2,0,0.0000,0.0500,-0.1200,-0.0625,0.0000,0.0000
1721017588.78,0,1,2,0,0.0000,0.0600,-0.1200,0.0000,0.0625,0.0000
1721017588.79,0,1,2,0,0.0100,0.0600,-0.1000,0.0000,0.0000,0.0000
1721017588.80,0,1,2,0,0.0300,0.0700,-0.1200,0.0000,0.0000,0.0000
1721017588.81,0,1,2,0,0.0000,0.0600,-0.1100,0.0000,0.0000,0.0000
1721017588.82,0,1,2,0,0.0000,0.0600,-0.1100,0.0000,0.0625,0.0000
1721017588.83,0,1,2,0,0.0100,0.0500,-0.1000,0.0000,0.0000,0.0000
1721017588.84,0,1,2,0,0.0000,0.0500,-0.1300,0.0625,0.0000,0.0000
1721017588.85,0,1,2,0,0.0100,0.0600,-0.1400,0.1250,0.0000,-0.0625
1721017588.86,0,1,2,0,0.0100,0.0500,-0.1200,0.0625,-0.1250,0.0000
1721017588.87,0,1,2,0,0.0100,0.0700,-0.1200,0.0000,-0.1250,0.0000
1721017588.88,0,1,2,0,0.0000,0.0700,-0.1200,0.0625,-0.0625,0.0000
1721017588.89,0,1,2,0,0.0000,0.0600,-0.1100,0.0000,0.0625,0.0000
1721017588.90,0,1,2,0,0.0200,0.0600,-0.1300,0.0000,0.0000,0.0000
1721017588.91,0,1,2,0,0.0000,0.0600,-0.1100,0.0000,0.0000,0.0625
1721017588.92,0,1,2,0,0.0000,0.0700,-0.1300,0.0000,0.0625,0.0000
1721017588.93,0,1,3,0,0.0000,0.0600,-0.1300,0.0000,0.0000,0.0625
1721017588.94,0,1,3,0,0.0000,0.0600,-0.1300,0.0000,0.0000,0.0000
1721017588.95,0,1,3,0,0.0000,0.0600,-0.1500,0.0000,0.0000,0.0000
1721017588.96,0,1,3,0,0.0000,0.0500,-0.1400,0.0000,0.0625,0.0000
1721017588.97,0,1,3,0,0.0100,0.0700,-0.1200,0.0000,-0.0625,0.0000
1721017588.98,0,1,3,0,0.0200,0.0400,-0.1000,0.0625,-0.0625,0.0000
1721017588.99,0,1,3,0,0.0100,0.0400,-0.1300,0.0000,0.0000,0.0625
1721017589.00,0,1,3,0,0.0000,0.0500,-0.1300,0.0000,0.0625,0.0000
1721017589.01,0,1,3,0,0.0000,0.0700,-0.1400,0.0000,0.0000,0.1250
1721017589.02,0,1,3,0,0.0000,0.0400,-0.1300,0.0000,0.0000,0.0000
1721017589.03,0,1,3,0,0.0000,0.0600,-0.1100,0.0625,0.0000,0.0000
1721017589.04,0,1,3,0,0.0200,0.0400,-0.1500,0.0000,0.0625,0.0000
1721017589.05,0,1,3,0,0.0300,0.0500,-0.1300,0.0000,0.1875,0.0000
1721017589.06,0,1,3,0,0.0000,0.0700,-0.1200,0.0625,0.0000,0.0000
1721017589.07,0,1,3,0,0.0100,0.0700,-0.1300,0.0000,0.0000,0.0000
1721017589.08,0,1,3,0,0.0000,0.0500,-0.1100,0.0625,0.0000,0.0000
1721017589.09,0,1,3,0,0.0100,0.0400,-0.1500,0.0000,0.0000,0.0000
1721017589.10,0,1,3,0,0.0100,0.0600,-0.1200,-0.0625,0.1250,0.0000
1721017589.11,0,1,3,0,0.0000,0.0500,-0.1200,0.0000,0.0000,0.0000
1721017589.12,0,1,3,0,0.0000,0.0700,-0.1300,0.0000,0.0625,0.0000
1721017589.13,0,1,3,0,0.0000,0.0700,-0.1100,0.0000,0.0000,0.0000
1721017589.14,0,1,3,0,0.0000,0.0600,-0.1100,0.0000,-0.1250,0.0000
1721017589.15,0,1,3,0,0.0100,0.0600,-0.1400,-0.1250,0.0625,0.0000
1721017589.16,0,1,3,0,0.0100,0.0600,-0.1200,0.0000,0.0000,0.0000
1721017589.17,0,1,3,0,0.0000,0.0500,-0.1400,0.0625,0.1250,0.0000
1721017589.18,0,1,3,0,0.0100,0.0500,-0.1100,0.0000,0.0625,0.0000
1721017589.19,0,1,3,0,0.0200,0.0500,-0.1200,0.0000,-0.1250,0.0625
1721017589.20,0,1,3,0,0.0000,0.0500,-0.1200,0.0000,-0.0625,0.0000
1721017589.21,0,1,3,0,0.0000,0.0500,-0.1400,0.0000,0.0625,0.0000
1721017589.22,0,1,3,0,0.0100,0.0600,-0.1300,0.0000,0.0000,0.0000
1721017589.23,0,1,3,0,0.0100,0.0500,-0.1300,0.0000,0.0625,0.0625
1721017589.24,0,1,3,0,0.0000,0.0700,-0.1100,0.0000,0.0000,0.0000
1721017589.25,0,1,3,0,0.0100,0.0600,-0.1300,0.0000,0.0000,0.0000
1721017589.26,0,1,3,0,0.0100,0.0600,-0.1400,0.0000,-0.0625,0.0000
1721017589.27,0,1,3,0,0.0100,0.0300,-0.1200,0.1875,0.0625,-0.0625
1721017589.28,0,1,3,0,0.0100,0.0700,-0.1100,0.0000,0.0000,0.0000
1721017589.29,0,1,3,0,0.0200,0.0600,-0.1100,0.0625,0.0000,0.0000
1721017589.30,0,1,3,0,0.0300,0.0400,-0.1200,0.0000,0.0000,0.0000
1721017589.31,0,1,3,0,0.0100,0.0400,-0.1200,0.0000,0.0000,0.0000
1721017589.32,0,1,3,0,0.0100,0.0500,-0.1000,0.1250,0.0625,0.0000
1721017589.33,0,1,3,0,0.0000,0.0700,-0.1200,0.0000,-0.0625,0.0000
1721017589.34,0,1,3,0,0.0100,0.0700,-0.1200,0.0625,0.1250,-0.0625
1721017589.35,0,1,3,0,0.0100,0.0600,-0.1200,0.0000,0.0625,-0.0625
1721017589.36,0,1,3,0,0.0000,0.0600,-0.1100,0.0625,0.0000,0.0000
1721017589.37,0,1,3,0,0.0000,0.0500,-0.1200,0.0000,0.0000,0.0000
1721017589.38,0,1,3,0,0.0100,0.0500,-0.1200,0.0000,0.0000,0.0000
1721017589.39,0,1,3,0,0.0000,0.0500,-0.1400,0.0625,0.0000,0.0000
1721017589.40,0,1,3,0,0.0100,0.0500,-0.1300,0.0000,0.0000,0.0000
1721017589.41,0,1,3,0,0.0100,0.0500,-0.1400,0.0000,0.0000,-0.0625
1721017589.42,0,1,3,0,0.0000,0.0500,-0.1200,-0.0625,0.0000,0.0000
1721017589.43,0,1,3,0,0.0000,0.0700,-0.1100,0.0000,0.1250,0.0000
1721017589.44,0,1,3,0,0.0000,0.0500,-0.1300,0.0000,0.0000,0.0000
1721017589.45,0,1,3,0,0.0000,0.0500,-0.1500,0.0000,-0.0625,0.0000
1721017589.46,0,1,3,0,0.0100,0.0500,-0.1300,0.0000,0.1250,0.0000
1721017589.47,0,1,3,0,-0.0100,0.0400,-0.1400,0.0000,0.0000,0.0000
1721017589.48,0,1,3,0,0.0100,0.0600,-0.1100,0.0000,-0.1250,0.0000
1721017589.49,0,1,3,0,0.0100,0.0400,-0.1400,0.0000,-0.1250,0.0000
1721017589.50,0,1,3,0,0.0000,0.0600,-0.1500,0.0000,0.0000,0.0000
1721017589.51,0,1,3,0,0.0100,0.0700,-0.1500,0.0000,0.0000,0.0000
1721017589.52,0,1,3,0,0.0100,0.0700,-0.1100,-0.0625,-0.1875,0.0000
1721017589.53,0,1,3,0,0.0100,0.0500,-0.1100,0.0000,0.1250,0.0000
1721017589.54,0,1,3,0,0.0000,0.0400,-0.1100,-0.1250,-0.0625,0.0000
1721017589.55,0,1,3,0,0.0200,0.0500,-0.1300,0.0000,0.0000,0.0000
1721017589.56,0,1,3,0,0.0000,0.0600,-0.1100,-0.0625,0.0000,0.0000
1721017589.57,0,1,3,0,0.0000,0.0600,-0.1200,0.0000,0.0000,0.0000
1721017589.58,0,1,3,0,0.0200,0.0500,-0.1200,0.0000,-0.0625,0.0000
1721017589.59,0,1,3,0,0.0000,0.0500,-0.1300,0.0000,0.0000,0.0000
1721017589.60,0,1,3,0,0.0100,0.0400,-0.1400,0.0000,-0.0625,0.0000
1721017589.61,0,1,3,0,0.0000,0.0500,-0.1100,0.0000,-0.1250,0.0000
1721017589.62,0,1,3,0,0.0100,0.0500,-0.1100,0.0000,0.0000,0.0000
1721017589.63,0,1,3,0,0.0000,0.0600,-0.1200,-0.0625,0.0000,0.0000
1721017589.64,0,1,3,0,0.0100,0.0600,-0.1100,0.0000,0.0000,0.0625
1721017589.65,0,1,3,0,0.0000,0.0700,-0.1300,0.0000,0.0625,0.0000
1721017589.66,0,1,3,0,0.0000,0.0600,-0.1100,0.0000,0.0000,0.0000
1721017589.67,0,1,3,0,0.0000,0.0700,-0.1300,0.0000,-0.1250,0.0000
1721017589.68,0,1,3,0,0.0100,0.0500,-0.1200,0.0000,0.0000,0.0000
1721017589.69,0,1,3,0,0.0000,0.0600,-0.1200,-0.0625,0.0625,0.0000
1721017589.70,0,1,3,0,0.0100,0.0600,-0.1100,0.0000,0.0000,0.0000
1721017589.71,0,1,3,0,0.0100,0.0800,-0.1200,0.0000,0.0000,0.0000
1721017589.72,0,1,3,0,0.0100,0.0400,-0.1300,0.0000,0.0000,0.0000
1721017589.73,0,1,3,0,0.0000,0.0700,-0.1200,0.0000,-0.0625,0.0625
1721017589.74,0,1,3,0,0.0000,0.0500,-0.1100,0.0000,0.0625,0.0000
1721017589.75,0,1,3,0,0.0000,0.0700,-0.1300,0.0000,-0.0625,0.0625
1721017589.76,0,1,3,0,0.0100,0.0600,-0.1100,0.0000,0.0625,0.0000
1721017589.77,0,1,3,0,0.0100,0.0500,-0.1100,0.0000,0.1250,0.0000
1721017589.78,0,1,3,0,0.0100,0.0400,-0.1500,0.0000,0.0000,0.0000
1721017589.79,0,1,3,0,0.0200,0.0500,-0.1400,-0.0625,0.0000,0.0000
1721017589.80,0,1,3,0,0.0100,0.0600,-0.1300,0.0000,0.1250,0.0000
1721017589.81,0,1,3,0,0.0000,0.0600,-0.1200,0.0000,0.0625,0.0000
1721017589.82,0,1,3,0,0.0000,0.0400,-0.1400,0.0000,0.0000,0.0000
1721017589.83,0,1,3,0,0.0000,0.0500,-0.1200,0.0000,0.0000,0.0000
1721017589.84,0,1,3,0,0.0100,0.0600,-0.1400,0.0000,-0.0625,0.0000
1721017589.85,0,1,3,0,0.0100,0.0600,-0.1400,0.0000,0.0625,0.0000
1721017589.86,0,1,3,0,0.0100,0.0600,-0.1400,0.0000,0.1250,0.0000
1721017589.87,0,1,3,0,0.0100,0.0500,-0.1300,0.0000,0.0000,0.0000
1721017589.88,0,1,3,0,0.0000,0.0600,-0.1200,0.0000,0.0000,0.0000
1721017589.89,0,1,3,0,0.0000,0.0600,-0.1400,0.0000,0.1250,0.0000
1721017589.90,0,1,3,0,0.0100,0.0600,-0.1300,-0.1250,0.0625,0.0000
1721017589.91,0,1,3,0,0.0000,0.0600,-0.1100,-0.0625,0.0000,0.0000
1721017589.92,0,1,3,0,0.0000,0.0400,-0.1000,-0.1250,0.0000,0.0000
1721017589.93,0,1,3,0,0.0000,0.0500,-0.1300,0.0000,0.0625,0.0000
1721017589.94,0,1,3,0,0.0200,0.0400,-0.1200,0.0000,0.0000,0.0000
1721017589.95,0,1,3,0,0.0100,0.0500,-0.1200,0.0000,-0.0625,0.0000
1721017589.96,0,1,3,0,0.0000,0.0400,-0.1400,0.0000,0.0000,0.0000
1721017589.97,0,1,3,0,0.0100,0.0500,-0.1200,-0.0625,-0.0625,0.0000
1721017589.98,0,1,3,0,0.0100,0.0600,-0.1300,0.0000,-0.0625,0.0000
1721017589.99,0,1,3,0,0.0100,0.0400,-0.1200,0.0000,0.0000,0.0000
1721017590.00,0,1,3,0,0.0100,0.0500,-0.1400,0.0000,0.2500,0.0000
1721017590.01,0,1,3,0,0.0100,0.0500,-0.1100,-0.0625,0.0000,0.0000
1721017590.02,0,1,3,0,0.0100,0.0600,-0.1200,0.0000,-0.1250,0.0000
1721017590.03,0,1,3,0,0.0000,0.0300,-0.1200,0.0000,0.0000,0.0000
1721017590.04,0,1,3,0,0.0100,0.0600,-0.1300,0.0000,0.1250,0.0000
1721017590.05,0,1,3,0,0.0100,0.0500,-0.1400,0.0000,0.0000,0.0000
1721017590.06,0,1,3,0,-0.0100,0.0500,-0.1200,0.0000,0.0000,0.0000
1721017590.07,0,1,3,0,0.0200,0.0600,-0.1200,0.0000,0.0000,0.0000
1721017590.08,0,1,3,0,0.0000,0.0600,-0.1200,0.0000,0.0000,0.0000
1721017590.09,0,1,3,0,0.0200,0.0500,-0.1400,0.0000,0.0625,0.0625
1721017590.10,0,1,3,0,0.0100,0.0300,-0.1500,-0.1250,0.1875,0.0000
1721017590.11,0,1,3,0,0.0000,0.0600,-0.1200,0.0000,0.0625,0.0000
1721017590.12,0,1,3,0,0.0000,0.0700,-0.1300,0.0000,0.0000,0.0000
1721017590.13,0,1,3,0,0.0000,0.0400,-0.1200,0.0000,0.0000,0.0000
1721017590.14,0,1,3,0,0.0100,0.0700,-0.1300,0.0000,-0.0625,0.0000
1721017590.15,0,1,3,0,0.0100,0.0500,-0.1300,0.0000,-0.0625,0.0625
1721017590.16,0,1,3,0,0.0100,0.0500,-0.1600,-0.0625,0.0000,0.0000
1721017590.17,0,1,3,0,0.0000,0.0500,-0.1200,-0.0625,0.0000,0.0000
1721017590.18,0,1,3,0,0.0100,0.0600,-0.1300,0.0000,0.0000,0.0000
1721017590.19,0,1,3,0,-0.0100,0.0700,-0.1400,0.0000,0.0000,0.0000
1721017590.20,0,1,3,0,0.0200,0.0600,-0.1300,0.0000,0.0000,0.0000
1721017590.21,0,1,3,0,0.0100,0.0500,-0.1200,0.0000,0.0625,0.0000
1721017590.22,0,1,3,0,0.0100,0.0400,-0.1200,0.0000,0.0000,-0.0625
1721017590.23,0,1,3,0,0.0100,0.0600,-0.1100,-0.0625,0.0000,0.0000
1721017590.24,0,1,3,0,0.0000,0.0500,-0.1300,0.0000,0.0000,0.0625
1721017590.25,0,1,3,0,0.0100,0.0400,-0.1300,0.0000,0.0000,0.0000
1721017590.26,0,1,3,0,0.0000,0.0500,-0.1300,0.0000,0.0000,0.0625
1721017590.27,0,1,3,0,0.0000,0.0500,-0.1300,0.0000,0.0000,0.0000
1721017590.28,0,1,3,0,0.0100,0.0500,-0.1100,0.0000,-0.0625,0.0000
1721017590.29,0,1,3,0,0.0100,0.0600,-0.1200,0.0000,-0.0625,0.0000
1721017590.30,0,1,3,0,0.0100,0.0400,-0.1400,-0.0625,0.0625,0.0000
1721017590.31,0,1,3,0,0.0100,0.0800,-0.1300,0.0000,0.0000,0.0000
1721017590.32,0,1,3,0,0.0100,0.0600,-0.0900,-0.0625,-0.0625,0.0000
1721017590.33,0,1,3,0,0.0000,0.0200,-0.1300,-0.0625,0.0000,0.0000
1721017590.34,0,1,3,0,0.0000,0.0500,-0.1400,0.0000,0.0000,0.0000
1721017590.35,0,1,3,0,0.0200,0.0500,-0.1200,0.0000,0.0000,0.0000
1721017590.36,0,1,3,0,0.0100,0.0500,-0.1000,-0.0625,0.1250,0.0000
1721017590.37,0,1,3,0,0.0000,0.0500,-0.1300,-0.0625,-0.1250,0.0000
1721017590.38,0,1,3,0,0.0100,0.0600,-0.1000,0.0000,0.0000,0.0000
1721017590.39,0,1,3,0,0.0100,0.0500,-0.1300,0.0000,0.0000,0.0000
1721017590.40,0,1,3,0,0.0100,0.0300,-0.1300,-0.0625,0.0625,0.0000
1721017590.41,0,1,3,0,0.0000,0.0600,-0.1300,0.0000,0.0000,0.0000
1721017590.42,0,1,3,0,0.0100,0.0500,-0.1300,-0.0625,0.1875,0.0000
1721017590.43,0,1,3,0,0.0100,0.0500,-0.1100,-0.0625,0.0000,0.0000
1721017590.44,0,1,3,0,0.0100,0.0600,-0.1100,0.0625,0.0000,0.0000
1721017590.45,0,1,3,0,0.0000,0.0500,-0.1400,0.0000,0.0000,0.0000
1721017590.46,0,1,3,0,0.0100,0.0500,-0.1200,0.1250,0.0625,0.0000
1721017590.47,0,1,3,0,0.0100,0.0500,-0.1300,0.0625,0.1250,-0.0625
1721017590.48,0,1,3,0,0.0100,0.0700,-0.1500,0.0625,-0.1250,0.0000
1721017590.49,0,1,3,0,0.0000,0.0600,-0.1200,0.0000,0.0000,0.0000
1721017590.50,0,1,3,0,0.0100,0.0700,-0.1400,0.0000,0.0000,0.0000
1721017590.51,0,1,3,0,0.0000,0.0500,-0.1200,0.0000,0.0000,0.0000
1721017590.52,0,1,3,0,0.0100,0.0600,-0.1200,0.1250,0.0000,0.0000
1721017590.53,0,1,3,0,0.0000,0.0700,-0.1300,0.1250,0.0000,0.0000
1721017590.54,0,1,3,0,0.0000,0.0600,-0.1400,0.0625,0.0000,-0.0625
1721017590.55,0,1,3,0,0.0000,0.0400,-0.1500,0.0625,0.0000,0.0000
1721017590.56,0,1,3,0,0.0000,0.0600,-0.1300,0.0000,0.0000,0.0000
1721017590.57,0,1,3,0,0.0000,0.0400,-0.1100,0.0000,0.0000,0.0000
1721017590.58,0,1,3,0,0.0100,0.0700,-0.1500,0.0000,0.0000,0.0000
1721017590.59,0,1,3,0,0.0100,0.0500,-0.1400,0.1250,0.1250,0.0000
1721017590.60,0,1,3,0,0.0100,0.0500,-0.1600,0.0625,0.0625,0.0000
1721017590.61,0,1,3,0,0.0000,0.0500,-0.1300,0.0000,0.0625,0.0000
1721017590.62,0,1,3,0,0.0100,0.0500,-0.1200,0.0625,-0.1250,0.0000
1721017590.63,0,1,3,0,0.0000,0.0500,-0.1100,0.0000,-0.0625,0.0000
1721017590.64,0,1,3,0,0.0100,0.0600,-0.1400,0.0000,-0.1875,0.0000
1721017590.65,0,1,3,0,0.0000,0.0600,-0.1300,0.0000,-0.1250,0.0000
1721017590.66,0,1,3,0,0.0000,0.0500,-0.1100,0.0000,0.0000,0.0000
1721017590.67,0,1,3,0,0.0100,0.0500,-0.1200,0.0625,0.0000,0.0000
1721017590.68,0,1,3,0,0.0100,0.0800,-0.1300,0.0000,0.0625,0.0000
1721017590.69,0,1,3,0,0.0000,0.0700,-0.1300,0.0000,0.0625,0.0000
1721017590.70,0,1,3,0,0.0100,0.0400,-0.1500,0.0000,0.1250,0.0000
1721017590.71,0,1,3,0,0.0000,0.0600,-0.1300,0.0625,-0.0625,0.0000
1721017590.72,0,1,3,0,0.0000,0.0600,-0.1300,0.0000,0.0625,0.0000
1721017590.73,0,1,3,0,0.0100,0.0400,-0.1200,0.0000,0.0000,0.0000
1721017590.74,0,1,3,0,0.0100,0.0600,-0.0900,0.0625,0.0000,0.0000
1721017590.75,0,1,3,0,0.0100,0.0400,-0.1400,0.0000,-0.0625,0.0000
1721017590.76,0,1,3,0,0.0100,0.0500,-0.1400,0.0000,0.1875,0.0000
1721017590.77,0,1,3,0,0.0200,0.0600,-0.1300,0.0000,0.0000,0.0000
1721017590.78,0,1,3,0,0.0100,0.0500,-0.1100,0.0000,0.1250,0.0000
1721017590.79,0,1,3,0,0.0000,0.0700,-0.1200,0.0000,0.0000,0.0000
1721017590.80,0,1,3,0,0.0300,0.0500,-0.1300,0.0000,0.0000,0.0625
1721017590.81,0,1,3,0,0.0200,0.0600,-0.1300,0.0000,0.0000,0.0625
1721017590.82,0,1,3,0,0.0100,0.0700,-0.1300,0.1250,0.0000,0.0000
1721017590.83,0,1,3,0,0.0100,0.0600,-0.1300,0.0000,0.0000,0.0000
1721017590.84,0,1,3,0,0.0100,0.0800,-0.1300,0.0000,0.0000,0.0000
1721017590.85,0,1,3,0,0.0100,0.0500,-0.1300,0.0000,0.0000,0.0000
1721017590.86,0,1,3,0,0.0200,0.0500,-0.1300,0.0000,-0.1250,0.0000
1721017590.87,0,1,3,0,0.0100,0.0400,-0.1300,0.0000,-0.1250,0.0625
1721017590.88,0,1,3,0,0.0200,0.0400,-0.1200,0.0000,0.0625,0.0000
1721017590.89,0,1,3,0,0.0100,0.0400,-0.1300,0.0000,0.0625,0.0000
1721017590.90,0,1,3,0,0.0000,0.0500,-0.1300,0.0000,0.1250,0.0000
1721017590.91,0,1,3,0,0.0000,0.0600,-0.1200,0.0000,0.0625,0.0000
1721017590.92,0,1,3,0,0.0100,0.0600,-0.1400,0.0000,0.0000,0.0000
1721017590.93,0,1,3,0,0.0100,0.0400,-0.1300,0.0000,0.0000,0.0000
1721017590.94,0,1,3,0,0.0000,0.0500,-0.1300,0.0000,0.0625,0.0000
1721017590.95,0,1,3,0,0.0100,0.0800,-0.1300,0.0000,0.0000,0.0000
1721017590.96,0,1,3,0,0.0000,0.0700,-0.1500,0.1250,0.0625,0.0000
1721017590.97,0,1,3,0,0.0000,0.0600,-0.1500,0.0000,0.0000,0.0000
1721017590.98,0,1,3,0,0.0100,0.0500,-0.1100,0.0000,0.0000,0.0000
1721017590.99,0,1,3,0,0.0100,0.0700,-0.1300,0.0000,0.0000,0.0000
1721017591.00,0,1,3,0,0.0300,0.0600,-0.1500,0.0000,0.0000,0.0000
1721017591.01,0,1,3,0,0.0100,0.0700,-0.1300,0.0000,0.0000,0.0000
1721017591.02,0,1,3,0,0.0000,0.0700,-0.0900,0.0000,0.0000,0.0000
1721017591.03,0,1,3,0,0.0000,0.0300,-0.1300,0.0000,-0.2500,0.0000
1721017591.04,0,1,3,0,0.0100,0.0500,-0.1300,0.0625,0.0000,0.0000
1721017591.05,0,1,3,0,0.0200,0.0400,-0.1500,0.0625,0.1875,0.0000
1721017591.06,0,1,3,0,0.0200,0.0500,-0.1100,-0.0625,0.0625,0.0000
1721017591.07,0,1,3,0,0.0000,0.0300,-0.1300,0.0000,0.0000,0.0000
1721017591.08,0,1,3,0,0.0000,0.0300,-0.1200,-0.0625,0.0000,0.0000
1721017591.09,0,1,3,0,0.0100,0.0500,-0.1300,0.0000,0.0000,0.0000
1721017591.10,0,1,3,0,0.0000,0.0400,-0.1400,0.0625,0.0000,0.0000
1721017591.11,0,1,3,0,0.0000,0.0500,-0.1100,0.0000,0.0000,0.0000
1721017591.12,0,1,3,0,0.0200,0.0400,-0.1200,0.0000,-0.0625,0.0000
1721017591.13,0,1,3,0,0.0100,0.0600,-0.1400,0.0000,-0.1250,0.0000
1721017591.14,0,1,3,0,0.0200,0.0700,-0.1500,0.0000,-0.0625,0.0000
1721017591.15,0,1,3,0,0.0100,0.0500,-0.1400,0.0000,0.0000,0.0000
1721017591.16,0,1,3,0,0.0100,0.0700,-0.1500,0.0000,-0.0625,0.0625
1721017591.17,0,1,3,0,0.0100,0.0600,-0.1300,0.0000,0.0000,0.0000
1721017591.18,0,1,3,0,0.0100,0.0600,-0.1200,0.0625,0.0000,0.0000
1721017591.19,0,1,3,0,0.0100,0.0400,-0.1200,0.0625,0.0000,0.0000
1721017591.20,0,1,3,0,0.0100,0.0300,-0.1300,0.0625,0.0000,0.0000
1721017591.21,0,1,3,0,0.0000,0.0400,-0.1400,0.0000,0.0000,0.0000
1721017591.22,0,1,3,0,0.0000,0.0600,-0.1100,0.0625,0.0000,0.0000
1721017591.23,0,1,3,0,0.0100,0.0400,-0.1400,0.0000,0.2500,0.0000
1721017591.24,0,1,3,0,0.0000,0.0600,-0.1400,0.0000,-0.1250,0.0000
1721017591.25,0,1,3,0,0.0100,0.0300,-0.1400,0.0000,0.0625,0.0000
1721017591.26,0,1,3,0,0.0000,0.0400,-0.1100,0.0625,0.1875,0.0000
1721017591.27,0,1,3,0,0.0000,0.0600,-0.1300,0.0000,0.0000,0.0000
1721017591.28,0,1,3,0,0.0200,0.0600,-0.1300,0.0000,0.0000,0.0000
1721017591.29,0,1,3,0,0.0100,0.0600,-0.1400,0.0625,-0.0625,0.0000
1721017591.30,0,1,3,0,0.0000,0.0200,-0.1500,0.0000,-0.0625,0.0000
1721017591.31,0,1,3,0,0.0100,0.0500,-0.1500,0.0625,0.0000,0.0000
1721017591.32,0,1,3,0,0.0000,0.0700,-0.1300,0.0625,-0.1250,0.0000
1721017591.33,0,1,3,0,0.0000,0.0500,-0.1300,0.1250,-0.0625,0.0000
1721017591.34,0,1,3,0,0.0100,0.0300,-0.1000,0.0625,0.0000,0.0000
1721017591.35,0,1,3,0,0.0000,0.0500,-0.1400,0.0625,0.0000,0.0000
1721017591.36,0,1,3,0,0.0100,0.0500,-0.1200,0.0000,-0.0625,0.0000
1721017591.37,0,1,3,0,0.0000,0.0500,-0.1300,0.0000,0.0000,0.0000
1721017591.38,0,1,3,0,0.0100,0.0500,-0.1100,0.1250,0.0000,0.0000
1721017591.39,0,1,3,0,0.0000,0.0600,-0.1500,0.0000,-0.1875,0.0000
1721017591.40,0,1,3,0,0.0000,0.0500,-0.1600,0.0000,0.0000,0.0625
1721017591.41,0,1,3,0,0.0100,0.0500,-0.1200,0.0000,0.0625,-0.0625
1721017591.42,0,1,3,0,0.0100,0.0500,-0.1200,0.0625,0.0625,0.0000
1721017591.43,0,1,3,0,0.0200,0.0500,-0.1400,0.0000,-0.1250,0.0625
1721017591.44,0,1,3,0,0.0100,0.0300,-0.1000,0.0000,0.1250,0.0000
1721017591.45,0,1,3,0,0.0300,0.0500,-0.1300,0.0000,0.1250,0.0000
1721017591.46,0,1,3,0,0.0000,0.0500,-0.1200,0.0000,0.0000,0.0625
1721017591.47,0,1,3,0,0.0100,0.0500,-0.1400,0.0000,0.0000,0.0000
1721017591.48,0,1,3,0,0.0100,0.0600,-0.1200,0.0000,0.0625,0.0000
1721017591.49,0,1,3,0,0.0100,0.0400,-0.1300,0.0000,0.0000,0.0000
1721017591.50,0,1,3,0,0.0100,0.0800,-0.1800,0.0000,0.0000,0.0000
1721017591.51,0,1,3,0,0.0100,0.0500,-0.1400,0.0000,0.1250,0.0000
1721017591.52,0,1,3,0,0.0100,0.0500,-0.1300,0.0000,0.0000,0.0000
1721017591.53,0,1,3,0,0.0100,0.0400,-0.1200,0.0000,-0.0625,0.0000
1721017591.54,0,1,3,0,0.0200,0.0400,-0.1000,0.0000,0.1875,0.0000
1721017591.55,0,1,3,0,0.0000,0.0400,-0.1300,0.0000,0.0625,0.0000
1721017591.56,0,1,3,0,0.0100,0.0600,-0.1400,0.0000,0.0000,0.0000
1721017591.57,0,1,3,0,0.0200,0.0500,-0.1300,0.0000,-0.0625,0.0000
1721017591.58,0,1,3,0,0.0100,0.0500,-0.1300,0.0000,0.0000,0.0000
1721017591.59,0,1,3,0,0.0200,0.0400,-0.1400,0.0000,0.0625,0.0000
1721017591.60,0,1,3,0,0.0100,0.0500,-0.1500,0.0000,0.2500,0.0000
1721017591.61,0,1,3,0,0.0100,0.0600,-0.1200,0.0000,0.0625,0.0000
1721017591.62,0,1,3,0,0.0100,0.0400,-0.1200,0.0625,0.0000,0.0000
1721017591.63,0,1,3,0,0.0200,0.0400,-0.1300,0.0625,0.0625,0.0000
1721017591.64,0,1,3,0,0.0100,0.0400,-0.1300,-0.0625,0.1250,0.0000
1721017591.65,0,1,3,0,0.0000,0.0400,-0.1500,0.0000,0.0000,0.0000
1721017591.66,0,1,3,0,0.0000,0.0600,-0.1500,0.0000,-0.1250,0.0000
1721017591.67,0,1,3,0,0.0100,0.0500,-0.1100,0.0000,0.0000,0.0000
1721017591.68,0,1,3,0,0.0100,0.0400,-0.1200,0.0000,0.0000,0.0000
1721017591.69,0,1,3,0,0.0200,0.0300,-0.1400,0.0000,0.0625,0.0000
1721017591.70,0,1,3,0,0.0100,0.0500,-0.1400,0.0625,0.0000,0.0000
1721017591.71,0,1,3,0,0.0100,0.0500,-0.1300,0.0000,0.0000,0.0000
1721017591.72,0,1,3,0,0.0000,0.0700,-0.1300,0.0000,-0.0625,0.0000
1721017591.73,0,1,3,0,0.0000,0.0400,-0.1400,0.1875,-0.0625,0.0000
1721017591.74,0,1,3,0,0.0100,0.0500,-0.1400,0.0000,0.0000,0.0000
1721017591.75,0,1,3,0,0.0000,0.0600,-0.1700,0.0625,0.0625,0.0000
1721017591.76,0,1,3,0,0.0100,0.0400,-0.1400,0.0000,0.0000,0.0000
1721017591.77,0,1,3,0,0.0100,0.0600,-0.1300,0.0000,0.0000,0.0000
1721017591.78,0,1,3,0,0.0100,0.0700,-0.1500,0.0000,-0.1250,0.0000
1721017591.79,0,1,3,0,0.0100,0.0300,-0.1400,0.0000,-0.0625,0.0000
1721017591.80,0,1,3,0,0.0100,0.0500,-0.1400,0.0000,0.0000,0.0000
1721017591.81,0,1,3,0,0.0100,0.0300,-0.1100,0.0000,0.0000,0.0000
1721017591.82,0,1,3,0,0.0100,0.0500,-0.1200,0.0000,-0.0625,0.0000
1721017591.83,0,1,3,0,0.0100,0.0500,-0.1300,0.0000,0.0000,0.0000
1721017591.84,0,1,3,0,0.0000,0.0500,-0.1400,0.0000,0.0000,0.0000
1721017591.85,0,1,3,0,0.0100,0.0500,-0.1400,0.0000,0.0000,0.0000
1721017591.86,0,1,3,0,0.0100,0.0500,-0.1200,0.0000,0.0625,0.0625
1721017591.87,0,1,3,0,0.0000,0.0500,-0.1300,0.0000,0.0000,0.0000
1721017591.88,0,1,3,0,0.0100,0.0500,-0.1500,0.0000,0.0625,0.0000
1721017591.89,0,1,3,0,0.0100,0.0700,-0.1300,0.0625,0.1875,0.0000
1721017591.90,0,1,3,0,0.0100,0.0600,-0.1500,0.0000,0.0625,0.0000
1721017591.91,0,1,3,0,0.0100,0.0500,-0.1400,0.0000,0.1250,-0.1250
1721017591.92,0,1,3,0,0.0100,0.0300,-0.1400,0.0000,0.0000,0.0000
1721017591.93,0,1,3,0,0.0000,0.0400,-0.1400,0.0000,0.0000,0.0000
1721017591.94,0,1,3,0,0.0000,0.0600,-0.1100,0.0000,0.1250,0.0000
1721017591.95,0,1,3,0,0.0100,0.0500,-0.1500,0.0000,0.0000,0.0625
1721017591.96,0,1,3,0,0.0100,0.0300,-0.1300,0.0000,0.0000,0.0625
1721017591.97,0,1,3,0,0.0100,0.0500,-0.1400,0.0000,-0.0625,0.0625
1721017591.98,0,1,3,0,0.0100,0.0400,-0.1400,0.0000,-0.0625,0.0000
1721017591.99,0,1,3,0,0.0100,0.0500,-0.1500,0.0000,-0.1250,0.0000
1721017592.00,0,1,3,0,0.0100,0.0400,-0.1400,-0.0625,0.0000,0.0000
1721017592.01,0,1,3,0,0.0200,0.0600,-0.1300,0.0000,0.0000,0.0000
1721017592.02,0,1,3,0,0.0100,0.0500,-0.1300,-0.0625,0.0625,0.0000
1721017592.03,0,1,3,0,0.0000,0.0400,-0.1300,0.0000,0.0000,0.0000
1721017592.04,0,1,3,0,0.0100,0.0600,-0.1300,-0.0625,0.0000,0.0000
1721017592.05,0,1,3,0,0.0100,0.0500,-0.1400,-0.1250,-0.0625,0.0000
1721017592.06,0,1,3,0,0.0000,0.0400,-0.1300,0.0000,0.1250,0.0000
1721017592.07,0,1,3,0,0.0000,0.0500,-0.1000,0.0000,0.0000,0.0000
1721017592.08,0,1,3,0,0.0000,0.0500,-0.1300,0.0000,0.0000,0.0000
1721017592.09,0,1,3,0,0.0100,0.0600,-0.1500,0.0000,0.0000,0.0000
1721017592.10,0,1,3,0,0.0100,0.0400,-0.1500,-0.0625,0.1250,0.0000
1721017592.11,0,1,3,0,0.0100,0.0500,-0.1600,-0.0625,0.1250,0.0000
1721017592.12,0,1,3,0,0.0100,0.0700,-0.1500,0.0000,0.0000,0.0625
1721017592.13,0,1,3,0,0.0000,0.0600,-0.1500,-0.0625,0.0000,0.0000
1721017592.14,0,1,3,0,0.0100,0.0500,-0.1300,0.0000,0.0625,0.0000
1721017592.15,0,1,3,0,0.0000,0.0500,-0.1400,0.0000,0.0000,0.0000
1721017592.16,0,1,3,0,0.0000,0.0500,-0.1400,0.0000,0.0000,0.0000
1721017592.17,0,1,3,0,0.0000,0.0500,-0.1300,0.0000,0.0000,0.0000
1721017592.18,0,1,3,0,0.0100,0.0700,-0.1300,0.0000,-0.1250,0.0000
1721017592.19,0,1,3,0,0.0100,0.0500,-0.1300,0.0000,0.1250,0.0000
1721017592.20,0,1,3,0,0.0000,0.0600,-0.1400,0.0000,0.1250,0.0000
1721017592.21,0,1,3,0,0.0000,0.0400,-0.1500,-0.0625,0.0000,0.0000
1721017592.22,0,1,3,0,0.0000,0.0700,-0.1500,0.0000,0.0000,0.0000
1721017592.23,0,1,3,0,0.0200,0.0700,-0.1400,-0.0625,0.1250,0.0000
1721017592.24,0,1,3,0,0.0100,0.0300,-0.1400,-0.0625,0.1250,0.0000
1721017592.25,0,1,3,0,0.0000,0.0400,-0.1300,0.0000,0.0000,0.0000
1721017592.26,0,1,3,0,0.0100,0.0500,-0.1400,0.0000,0.0625,0.0000
1721017592.27,0,1,3,0,0.0100,0.0500,-0.1300,0.0000,0.0000,0.0000
1721017592.28,0,1,3,0,0.0100,0.0400,-0.1200,0.0625,0.0625,0.0625
1721017592.29,0,1,3,0,0.0100,0.0200,-0.1300,0.0000,0.1875,0.0000
1721017592.30,0,1,3,0,0.0100,0.0400,-0.1500,0.0000,0.1250,0.0000
1721017592.31,0,1,3,0,0.0000,0.0400,-0.1300,0.0000,0.0000,0.0000
1721017592.32,0,1,3,0,0.0100,0.0300,-0.1400,0.0000,0.0625,0.0000
1721017592.33,0,1,3,0,0.0000,0.0500,-0.1200,0.0000,0.1875,0.0000
1721017592.34,0,1,3,0,0.0000,0.0500,-0.1400,0.0000,0.0000,0.0000
1721017592.35,0,1,3,0,0.0000,0.0500,-0.1400,0.0000,0.3125,0.0000
1721017592.36,0,1,3,0,0.0100,0.0700,-0.1300,0.0000,0.0000,0.0000
1721017592.37,0,1,3,0,0.0100,0.0500,-0.1200,-0.0625,0.0000,0.0625
1721017592.38,0,1,3,0,0.0300,0.0200,-0.1100,0.0000,0.0000,0.0000
1721017592.39,0,1,3,0,0.0100,0.0400,-0.1500,0.0625,0.1250,0.0000
1721017592.40,0,1,3,0,0.0100,0.0500,-0.1800,0.0000,0.0000,0.0000
1721017592.41,0,1,3,0,0.0100,0.0500,-0.1500,-0.0625,0.1250,0.0000
1721017592.42,0,1,3,0,0.0000,0.0500,-0.1300,-0.0625,-0.1250,0.0000
1721017592.43,0,1,3,0,0.0000,0.0700,-0.1300,-0.0625,-0.1250,0.0000
1721017592.44,0,1,3,0,0.0000,0.0500,-0.1200,0.0625,0.0625,0.0000
1721017592.45,0,1,3,0,0.0000,0.0300,-0.1500,-0.0625,0.1875,0.0000
1721017592.46,0,1,3,0,0.0000,0.0500,-0.1400,-0.0625,-0.1875,0.0000
1721017592.47,0,1,3,0,0.0100,0.0400,-0.1500,0.0000,0.0625,0.0000
1721017592.48,0,1,3,0,0.0000,0.0400,-0.1300,0.0000,0.1875,0.0000
1721017592.49,0,1,3,0,0.0000,0.0400,-0.1200,0.0000,0.0000,0.0625
1721017592.50,0,1,3,0,0.0100,0.0300,-0.1400,0.0000,-0.3125,-0.0625
1721017592.51,0,1,3,0,0.0100,0.0300,-0.1300,0.0000,0.2500,0.0000
1721017592.52,0,1,3,0,0.0100,0.0700,-0.1200,0.0000,0.1250,0.0000
1721017592.53,0,1,3,0,0.0100,0.0500,-0.1400,0.0000,-0.0625,0.0000
1721017592.54,0,1,3,0,0.0000,0.0600,-0.1300,0.0000,0.1250,0.0000
1721017592.55,0,1,3,0,0.0100,0.0500,-0.1700,0.0000,0.2500,0.0000
1721017592.56,0,1,3,0,0.0000,0.0600,-0.1200,0.0000,0.0000,0.0000
1721017592.57,0,1,3,0,0.0100,0.0500,-0.1400,0.0000,-0.0625,0.0000
1721017592.58,0,1,3,0,0.0100,0.0400,-0.1200,0.0000,0.1250,0.0000
1721017592.59,0,1,3,0,0.0000,0.0400,-0.1200,0.0000,0.4375,0.0000
1721017592.60,0,1,3,0,0.0000,0.0500,-0.1400,0.0000,-0.0625,0.0625
1721017592.61,0,1,3,0,0.0000,0.0400,-0.1600,0.0000,0.0000,0.0000
1721017592.62,0,1,3,0,0.0000,0.0600,-0.1100,0.0000,0.0000,0.0000
1721017592.63,0,1,3,0,0.0000,0.0600,-0.1300,-0.1875,0.0000,0.0000
1721017592.64,0,1,3,0,0.0100,0.0300,-0.1500,0.0000,0.0000,0.0625
1721017592.65,0,1,3,0,0.0000,0.0300,-0.1500,0.0000,0.2500,0.0000
1721017592.66,0,1,3,0,0.0000,0.0500,-0.1600,0.0000,0.0000,0.0000
1721017592.67,0,1,3,0,0.0100,0.0400,-0.1200,0.0000,0.0000,0.0000
1721017592.68,0,1,3,0,0.0100,0.0400,-0.1500,0.0000,0.0000,0.0000
1721017592.69,0,1,3,0,0.0000,0.0400,-0.1200,0.0000,0.0000,0.0000
1721017592.70,0,1,3,0,0.0000,0.0500,-0.1500,-0.0625,0.1250,0.0625
1721017592.71,0,1,3,0,0.0200,0.0500,-0.1400,0.0000,-0.0625,0.0000
1721017592.72,0,1,3,0,0.0100,0.0600,-0.1400,0.0000,-0.1875,0.0000
1721017592.73,0,1,3,0,0.0000,0.0200,-0.1300,0.0000,0.0000,0.0000
1721017592.74,0,1,3,0,0.0000,0.0500,-0.1200,0.0000,0.0000,0.0000
1721017592.75,0,1,3,0,0.0100,0.0500,-0.1300,0.0000,-0.0625,0.0000
1721017592.76,0,1,3,0,0.0200,0.0500,-0.1300,0.0000,0.0000,0.0000
1721017592.77,0,1,3,0,0.0000,0.0500,-0.1000,-0.0625,0.1875,0.0000
1721017592.78,0,1,3,0,0.0200,0.0600,-0.1300,0.0000,-0.1250,0.0000
1721017592.79,0,1,3,0,0.0100,0.0300,-0.1400,-0.1250,-0.1250,0.0000
1721017592.80,0,1,3,0,0.0000,0.0500,-0.1500,0.0000,0.0000,0.0000
1721017592.81,0,1,3,0,0.0000,0.0500,-0.1400,0.0000,-0.0625,0.0000
1721017592.82,0,1,3,0,0.0100,0.0400,-0.1200,0.0000,0.0000,0.0000
1721017592.83,0,1,3,0,-0.0100,0.0300,-0.1400,-0.1250,0.1875,0.0000
1721017592.84,0,1,3,0,0.0000,0.0200,-0.1500,0.0000,-0.0625,0.0625
1721017592.85,0,1,3,0,0.0000,0.0600,-0.1500,0.0000,0.0000,0.0000
1721017592.86,0,1,3,0,0.0000,0.0500,-0.1300,0.0000,0.0625,0.0625
1721017592.87,0,1,3,0,0.0100,0.0500,-0.1200,0.0000,-0.0625,0.0000
1721017592.88,0,1,3,0,0.0000,0.0400,-0.1300,-0.0625,0.0000,0.0000
1721017592.89,0,1,3,0,0.0100,0.0400,-0.1200,-0.0625,-0.1250,-0.0625
1721017592.90,0,1,3,0,0.0200,0.0500,-0.1200,0.0000,0.0625,0.0625
1721017592.91,0,1,3,0,0.0000,0.0500,-0.1400,0.0000,0.0000,0.0000
1721017592.92,0,1,3,0,0.0200,0.0500,-0.1300,0.0000,-0.0625,0.0000
1721017592.93,0,1,3,0,0.0000,0.0500,-0.1300,0.0000,-0.1875,0.0000
1721017592.94,0,1,3,0,0.0100,0.0500,-0.1300,0.0000,0.0000,0.0000
1721017592.95,0,1,3,0,0.0100,0.0400,-0.1500,0.0625,0.0625,0.0000
1721017592.96,0,1,3,0,0.0000,0.0500,-0.1300,0.0000,0.0000,0.0000
1721017592.97,0,1,3,0,0.0200,0.0500,-0.1300,0.0000,0.0000,0.0000
1721017592.98,0,1,3,0,0.0100,0.0300,-0.1400,0.0000,0.0000,0.0000
1721017592.99,0,1,3,0,0.0100,0.0400,-0.1400,0.0000,0.0000,0.0000
1721017593.00,0,1,3,0,0.0100,0.0700,-0.1400,0.0000,0.0000,0.0000
1721017593.01,0,1,3,0,0.0100,0.0700,-0.1300,0.0000,-0.0625,0.0000
1721017593.02,0,1,3,0,0.0000,0.0600,-0.1200,0.0000,0.0000,0.0000
1721017593.03,0,1,3,0,0.0100,0.0500,-0.1300,0.0000,-0.2500,0.0000
1721017593.04,0,1,3,0,0.0100,0.0400,-0.1200,0.0000,-0.2500,0.0000
1721017593.05,0,1,3,0,0.0100,0.0400,-0.1200,0.0625,-0.0625,0.0000
1721017593.06,0,1,3,0,0.0100,0.0700,-0.1100,-0.1250,0.0000,0.0625
1721017593.07,0,1,3,0,0.0000,0.0500,-0.1500,0.0000,-0.2500,0.0000
1721017593.08,0,1,3,0,0.0100,0.0500,-0.1200,0.0000,0.1250,0.0000
1721017593.09,0,1,3,0,0.0100,0.0500,-0.1300,0.0000,0.0000,0.0000
1721017593.10,0,1,3,0,0.0000,0.0300,-0.0700,-0.0625,0.0000,0.0000
1721017593.11,0,1,3,0,0.0100,0.0500,-0.1000,0.0000,-0.5625,0.0000
1721017593.12,0,1,3,0,0.0000,0.0700,-0.1600,0.0000,0.6250,0.0000
1721017593.13,0,1,3,0,-0.0100,0.0400,-0.1100,-0.1250,0.3750,0.0000
1721017593.14,0,1,3,0,0.0000,0.0500,-0.0900,0.1250,-0.7500,0.0000
1721017593.15,0,1,3,0,0.0200,0.0400,-0.1300,0.0000,-0.2500,0.1250
1721017593.16,0,1,3,0,0.0200,0.0800,-0.1300,0.0000,0.8750,0.0000
1721017593.17,0,1,3,0,-0.0400,0.0300,-0.1300,0.0000,0.3125,0.0000
1721017593.18,0,1,3,0,0.0200,0.0400,-0.0800,0.0000,-1.5625,0.0625
1721017593.19,0,1,3,0,0.0300,0.0400,-0.0800,0.0000,-0.3125,0.0000
1721017593.20,0,1,3,0,-0.0200,0.0400,-0.1600,0.0000,1.5000,0.0000
1721017593.21,0,1,3,0,0.0000,0.0500,-0.1400,0.1250,0.0000,0.0000
1721017593.22,0,1,3,0,-0.0200,0.0500,-0.1500,0.2500,-1.6875,0.0625
1721017593.23,0,1,3,0,0.0100,0.0500,-0.1100,0.3125,-3.0000,0.0625
1721017593.24,0,1,3,0,-0.5300,0.1800,-0.2200,0.0000,-2.8750,-1.1875
1721017593.25,0,1,3,0,0.1900,-0.0800,-0.0300,0.5000,1.1250,-7.0625
1721017593.26,0,1,3,0,-0.1600,0.0100,-0.2300,0.8125,-1.3750,-7.3125
1721017593.27,0,1,3,0,0.2000,0.0800,0.0300,0.0625,2.6250,-6.3125
1721017593.28,0,1,3,0,-0.2200,0.1000,-0.0500,0.6875,3.5000,-8.0625
1721017593.29,0,1,3,0,-0.3100,0.0600,-0.2500,1.1875,3.7500,-11.9375
1721017593.30,0,1,3,0,0.1400,0.0000,-0.1800,2.1875,-2.5625,-12.0000
1721017593.31,0,1,3,0,-0.3000,0.0200,-0.1200,3.3125,-11.1875,-12.5000
1721017593.32,0,1,3,0,-0.4700,0.0900,-0.1100,3.6875,-10.6875,-17.4375
1721017593.33,0,1,3,0,-0.4900,0.0100,-0.1400,3.6250,-5.5625,-23.8125
1721017593.34,0,1,3,0,-0.3900,-0.5700,-0.7100,6.5625,-31.2500,-24.8125
1721017593.35,0,1,3,0,-0.1300,-0.2900,0.2400,10.6875,-105.1250,-17.3125
1721017593.36,0,1,3,0,-0.1000,0.8400,0.0000,5.1250,-80.6875,-18.0625
1721017593.37,0,1,3,0,-2.3500,2.6300,0.0800,7.4375,-45.4375,-89.3125
1721017593.38,0,1,3,0,-0.4200,2.6300,1.4500,16.4375,-110.6250,-94.2500
1721017593.39,0,1,3,0,-0.2100,0.8800,-1.1700,20.9375,-169.6875,-54.1875
1721017593.40,0,1,3,0,0.2400,1.0800,-0.4000,21.7500,-143.2500,-25.2500
1721017593.41,0,1,3,0,0.8900,0.9700,-0.7600,14.0625,-74.5625,-18.0000
1721017593.42,0,1,3,0,0.4500,-2.3000,0.8700,3.1875,-55.4375,-37.3750
1721017593.43,0,1,3,0,-0.3200,-4.7500,1.1800,-7.8750,-97.7500,-93.0625
1721017593.44,0,1,3,0,1.4100,-5.5900,-0.1000,-10.5625,-159.5625,-118.6875
1721017593.45,0,1,3,0,4.1400,0.8100,-0.2600,-1.8750,-221.5625,-109.3125
1721017593.46,0,1,3,0,2.3100,-0.0400,-0.0500,-17.7500,-186.8125,-111.3750
1721017593.47,0,1,3,0,0.7500,-0.7900,-0.5700,-40.1875,-122.4375,-109.8750
1721017593.48,0,1,3,0,-0.2000,-1.0200,-0.4200,-42.9375,-109.8750,-82.3125
1721017593.49,0,1,3,0,-0.4900,-0.3700,-0.2900,-45.7500,-89.5000,-49.9375
1721017593.50,0,1,3,0,-0.3800,1.2200,0.7600,-50.1875,-67.7500,-34.5000
1721017593.51,0,1,3,0,-0.3200,-0.2500,0.1400,-61.7500,-73.0000,-23.0000
1721017593.52,0,1,3,0,-0.2600,0.0700,-0.2600,-59.8125,-95.3750,-32.9375
1721017593.53,0,1,3,0,0.9200,0.5800,0.2100,-74.1875,-79.8750,-40.1250
1721017593.54,0,1,3,0,-0.4900,-0.1400,-0.2800,-92.8750,-43.4375,-56.3750
1721017593.55,0,1,3,0,-1.4400,0.5800,-0.4700,-99.6250,-15.6250,-71.1250
1721017593.56,0,1,3,0,-1.2700,0.1500,0.0400,-90.1875,-5.6250,-60.8750
1721017593.57,0,1,3,0,-0.0600,0.4300,-0.5600,-80.0625,21.3125,-34.8125
1721017593.58,0,1,3,0,0.4200,0.4500,-0.7400,-70.3750,50.4375,-21.5000
1721017593.59,0,1,3,0,0.1800,0.3800,-1.3500,-56.4375,68.1875,-10.2500
1721017593.60,0,1,3,0,0.3600,0.1700,-1.2400,-42.0000,60.5000,-6.1250
1721017593.61,0,1,3,0,0.4200,-0.5100,-1.5700,-30.3125,38.1250,-18.5625
1721017593.62,0,1,3,0,0.0400,0.0100,-1.2300,-11.8750,-6.3125,-30.3125
1721017593.63,0,1,3,0,-1.8900,-1.2600,6.9200,66.3125,-179.5625,-13.5625
1721017593.64,0,1,3,0,0.6900,-0.2200,3.1200,145.2500,-94.6250,-8.6250
1721017593.65,0,1,3,0,1.0600,-0.2200,-1.2200,181.3750,-45.8750,-7.1875
1721017593.66,0,1,3,0,1.5900,0.7000,1.6800,151.3125,-70.2500,-10.7500
1721017593.67,0,1,3,0,0.6200,0.0300,-3.4200,106.1875,-6.6875,-11.6250
1721017593.68,0,1,3,0,0.4800,-0.5900,-3.2900,118.3125,-75.6250,-14.0000
1721017593.69,0,1,3,0,0.1000,0.3300,-0.7800,168.0000,-154.8125,-33.5000
1721017593.70,0,1,3,0,0.5100,-0.8100,0.1300,203.8750,-116.7500,-41.5000
1721017593.71,0,1,3,0,-0.5300,-0.5100,-0.2600,215.2500,-42.1250,-32.4375
1721017593.72,0,1,3,0,-0.9700,-0.3100,-0.3700,182.0000,-27.2500,-26.8750
1721017593.73,0,1,3,0,-1.1400,1.1200,-0.3700,102.0625,-47.6250,-19.9375
1721017593.74,0,1,3,0,-0.7300,1.3900,1.0700,-2.1250,-22.2500,-10.4375
1721017593.75,0,1,3,0,-0.5100,1.0900,0.5600,-92.1250,21.5000,-7.1875
1721017593.76,0,1,3,0,-0.2700,0.6200,0.1400,-132.7500,34.0625,-5.6250
1721017593.77,0,1,3,0,0.1800,0.2700,0.1100,-128.3750,39.2500,-5.1250
1721017593.78,0,1,3,0,0.8000,0.4600,-1.4700,-100.6875,49.7500,1.5000
1721017593.79,0,1,3,0,1.2300,0.2700,-2.0500,-47.1875,42.9375,6.3125
1721017593.80,0,1,3,0,1.5000,0.0500,-2.0300,19.5625,18.1250,8.4375
1721017593.81,0,1,3,0,0.8400,0.5300,-0.0300,68.5625,-14.2500,28.6250
1721017593.82,0,1,3,0,1.4300,-0.7800,0.1100,80.9375,-25.9375,62.1250
1721017593.83,0,1,3,0,1.3800,-2.6500,0.8000,73.1875,-40.5000,72.3125
1721017593.84,0,1,3,0,0.0000,-2.0300,0.4200,62.3125,-4.0625,39.9375
1721017593.85,0,1,3,0,-3.1400,0.0700,-1.3500,58.7500,43.8125,16.6250
1721017593.86,0,1,3,0,-3.1700,0.1800,-1.7700,43.8125,45.8125,5.5625
1721017593.87,0,1,3,0,-2.6900,0.9400,-1.9400,19.3750,-1.5000,6.1875
1721017593.88,0,1,3,0,-0.8300,1.4800,0.2300,-2.7500,-30.5000,11.6875
1721017593.89,0,1,3,0,0.1300,1.6600,0.1100,-20.6875,-26.3125,11.5000
1721017593.90,0,1,3,0,0.8100,1.3800,0.4200,-18.1250,-10.3125,9.1250
1721017593.91,0,1,3,0,1.0300,0.5800,-0.3100,-1.8125,17.6875,-0.4375
1721017593.92,0,1,3,0,-0.3400,-0.2100,-0.5100,18.6875,19.0625,13.7500
1721017593.93,0,1,3,0,-0.6700,-0.0600,0.6400,29.0625,7.1875,49.9375
1721017593.94,0,1,3,0,-0.5600,-0.0800,3.1200,13.9375,11.5625,83.9375
1721017593.95,0,1,3,0,-0.7500,0.4500,3.8100,-29.7500,81.5625,85.7500
1721017593.96,0,1,3,0,-1.4900,1.9900,0.4900,-49.0625,118.9375,58.5625
1721017593.97,0,1,3,0,-0.6100,0.8500,-0.2900,-39.0000,124.6875,-7.5625
1721017593.98,0,1,3,0,-0.4200,-1.7100,-0.8600,-19.5625,118.9375,-37.3125
1721017593.99,0,1,3,0,0.2500,-0.8300,-1.1500,1.5000,101.9375,7.9375
1721017594.00,0,1,3,0,1.0600,-0.1400,-1.0800,25.3125,83.4375,47.1250
1721017594.01,0,1,3,0,1.5700,0.7100,-1.1700,48.1875,73.2500,50.3125
1721017594.02,0,1,3,0,2.0700,0.7600,-1.4100,57.7500,55.0625,19.0625
1721017594.03,0,1,3,0,1.1400,0.7600,-0.5700,42.1875,26.0000,-11.7500
1721017594.04,0,1,3,0,0.3500,0.3700,-0.6400,-2.7500,4.8750,-23.1250
1721017594.05,0,1,3,0,0.1000,0.0400,-1.2100,-51.2500,-5.8750,-19.5000
1721017594.06,0,1,3,0,0.1300,-0.6900,-1.5400,-79.3750,-12.1250,-10.8750
1721017594.07,0,1,3,0,0.4300,-0.7400,-1.1500,-89.3125,-15.8750,-6.1875
1721017594.08,0,1,3,0,0.4500,-0.0300,-0.3200,-91.7500,-8.7500,-7.6875
1721017594.09,0,1,3,0,0.4500,0.0000,-0.2200,-90.3125,-1.3125,-13.5000
1721017594.10,0,1,3,0,0.0200,-0.0900,0.5800,-82.5625,-6.3750,-10.8750
1721017594.11,0,1,3,0,0.8000,-0.5400,-0.0500,-61.5000,5.0000,-5.0625
1721017594.12,0,1,3,0,0.3400,-0.3400,0.5700,-27.6875,2.1875,7.1875
1721017594.13,0,1,3,0,-0.1400,-0.0800,0.3400,3.6250,16.4375,16.6250
1721017594.14,0,1,3,0,-0.5300,0.2900,-0.1000,30.4375,26.3750,22.6875
1721017594.15,0,1,3,0,-0.0700,0.2300,0.4900,51.5000,23.1250,19.9375
1721017594.16,0,1,3,0,-0.0300,1.0700,-0.2100,91.3750,10.1875,19.3750
1721017594.17,0,1,3,0,0.8500,0.9000,0.8500,45.3750,-1.8125,21.0000
1721017594.18,0,1,3,0,1.3500,0.9400,0.8200,4.3125,8.0000,10.3750
1721017594.19,0,1,3,0,0.8600,0.4700,1.0500,0.9375,10.1250,11.9375
1721017594.20,0,1,3,0,0.2700,-0.3000,1.4500,0.9375,8.7500,23.9375
1721017594.21,0,1,3,0,-0.9500,-0.2700,0.4700,12.6250,9.6250,32.4375
1721017594.22,0,1,3,0,-1.0500,0.4100,-0.2400,1.2500,5.1250,31.5000
1721017594.23,0,1,3,0,-0.6000,0.3200,-0.4500,-25.6250,7.3125,19.6875
1721017594.24,0,1,3,0,-0.4200,-0.1800,-1.0100,-22.6250,3.7500,15.3125
1721017594.25,0,1,3,0,-0.3800,-0.7800,-1.1300,-2.9375,-1.6875,16.6250
1721017594.26,0,1,3,0,-0.3900,-0.9200,-1.0000,13.0625,-1.7500,17.6875
1721017594.27,0,1,3,0,0.2800,-0.5500,-0.6500,9.4375,12.6250,11.5625
1721017594.28,0,1,3,0,0.7600,-0.2200,-0.8100,-11.8125,24.7500,3.3125
1721017594.29,0,1,3,0,0.3800,0.0600,-1.0000,-33.7500,26.9375,-8.2500
1721017594.30,0,1,3,0,0.4100,-1.1600,-0.2700,-45.4375,23.1875,-25.5625
1721017594.31,0,1,3,0,0.0500,-0.6500,0.0000,-34.2500,16.4375,-27.4375
1721017594.32,0,1,3,0,-0.2200,1.7100,0.9700,-30.0625,13.3750,-27.0000
1721017594.33,0,1,3,0,-0.3700,0.1500,1.1700,-19.3750,8.1250,-16.3125
1721017594.34,0,1,3,0,-0.3700,-0.6700,1.7900,-6.8125,-2.7500,-1.6250
1721017594.35,0,1,3,0,0.1600,-0.4500,1.9400,1.6250,-29.1250,-15.0000
1721017594.36,0,1,3,0,0.1700,-0.3700,2.2200,18.5625,-80.1875,-28.5625
1721017594.37,0,1,3,0,0.1900,-0.8200,2.4000,66.9375,-115.5625,-34.1875
1721017594.38,0,1,3,0,0.7700,-1.3500,2.4000,132.0000,-130.0625,-19.2500
1721017594.39,0,1,3,0,1.1000,-0.6600,1.7200,212.0000,-120.7500,1.6250
1721017594.40,0,1,3,0,-0.8000,-0.4800,0.8700,278.6250,-110.5000,18.1875
1721017594.41,0,1,3,0,0.6900,-0.7200,0.9700,295.6250,-107.8125,7.1875
1721017594.42,0,1,3,0,0.9700,0.6300,-0.3200,265.8750,-72.2500,-1.8125
1721017594.43,0,1,3,0,0.6000,-0.3000,-0.2400,202.8125,-37.6250,-3.4375
1721017594.44,0,1,3,0,0.5900,-0.3100,-0.5300,120.3125,-23.6875,-12.1875
1721017594.45,0,1,3,0,0.3100,-0.4500,-0.5300,68.0000,-13.4375,-19.2500
1721017594.46,0,1,3,0,-0.2200,0.6300,-0.9100,49.1875,3.0000,-20.0625
1721017594.47,0,1,3,0,-0.6800,0.2400,-0.7300,55.6875,21.8750,-15.9375
1721017594.48,0,1,3,0,-0.9900,0.3000,-0.6500,68.9375,27.1875,-14.2500
1721017594.49,0,1,3,0,-1.2100,0.4000,-1.0900,88.4375,32.9375,-4.6875
1721017594.50,0,1,3,0,-1.0200,0.1600,-1.8200,120.2500,35.1875,1.9375
1721017594.51,0,1,3,0,-1.0300,0.0900,-2.6600,153.5000,0.1250,10.7500
1721017594.52,0,1,3,0,-0.7200,-0.1400,-3.1000,178.0625,-73.3125,21.5000
1721017594.53,0,1,3,0,-0.4100,0.4700,-0.2500,192.3125,-124.6250,27.5000
1721017594.54,0,1,3,0,-0.1500,0.2500,0.1100,191.2500,-74.9375,11.6875
1721017594.55,0,1,3,0,-0.5800,0.4000,-0.6300,178.8750,-7.1250,-11.1875
1721017594.56,0,1,3,0,-1.0100,-0.1900,-1.6100,161.9375,12.5000,-22.9375
1721017594.57,0,1,3,0,-1.3600,-0.1200,-1.9700,123.1250,5.5000,-16.2500
1721017594.58,0,1,3,0,0.0100,0.1400,-2.0100,57.2500,-6.9375,-2.6875
1721017594.59,0,1,3,0,1.0500,-0.8200,-2.0200,5.0625,-46.3125,-3.7500
1721017594.60,0,1,3,0,0.0700,-0.8900,0.5300,-3.3125,-91.7500,1.1250
1721017594.61,0,1,3,0,0.8600,-0.7100,0.9700,29.3125,-70.7500,-14.6875
1721017594.62,0,1,3,0,-0.0900,-1.0000,1.3600,63.9375,-4.2500,-23.3125
1721017594.63,0,1,3,0,-0.4000,-1.1100,0.6400,45.3750,49.8750,-8.6250
1721017594.64,0,1,3,0,-0.3100,-0.6400,-2.1800,-11.5000,108.7500,-5.6875
1721017594.65,0,1,3,0,0.1600,0.6900,-2.5200,-51.4375,105.5625,-13.3125
1721017594.66,0,1,3,0,-0.0700,0.4300,-2.0600,-45.3750,25.1875,-25.4375
1721017594.67,0,1,3,0,0.0900,-0.7300,0.3700,-27.5000,-49.6875,-36.6875
1721017594.68,0,1,3,0,-0.3200,-0.9700,0.0100,-24.5625,-27.1875,-29.4375
1721017594.69,0,1,3,0,-0.3700,-0.2800,-0.4600,-34.1250,24.5000,-17.6875
1721017594.70,0,1,3,0,-1.1700,1.0300,-0.9100,-28.6250,39.2500,-23.2500
1721017594.71,0,1,3,0,-1.2300,1.8100,-3.4100,-8.3750,3.3125,-38.2500
1721017594.72,0,1,3,0,-0.7800,-0.0500,-3.6200,-4.9375,-77.9375,-29.5000
1721017594.73,0,1,3,0,-1.4900,-1.1500,-1.4100,-22.9375,-159.3750,0.0000
1721017594.74,0,1,3,0,0.1900,-1.0300,2.0400,-36.1875,-136.1875,3.6875
1721017594.75,0,1,3,0,0.4500,0.1000,2.9900,-32.5625,-41.6250,1.6250
1721017594.76,0,1,3,0,0.9400,0.6600,2.3500,-33.3125,42.0000,9.8750
1721017594.77,1,1,3,0,-0.0700,0.8000,2.0800,-27.3750,75.0625,28.8750
1721017594.78,1,1,3,0,0.0900,1.0700,1.0200,1.4375,85.2500,28.8125
1721017594.79,1,1,3,0,0.1600,0.8800,0.2500,40.9375,74.4375,11.6875
1721017594.80,1,1,3,0,0.2900,0.1100,-0.3300,72.6875,48.5000,-5.1250
1721017594.81,1,1,3,0,0.0200,-0.1900,-0.8700,84.7500,25.0625,-14.3750
1721017594.82,1,1,3,0,-0.4300,-0.7200,-2.1200,73.9375,11.0625,-18.5625
1721017594.83,1,1,3,0,-0.4100,-0.8000,-1.9200,46.7500,-3.1875,-17.9375
1721017594.84,1,1,3,0,-0.1700,-0.6300,-1.5500,18.6875,-13.4375,-17.8125
1721017594.85,1,1,3,0,0.2900,0.3300,0.2100,-0.7500,-17.1250,-23.6250
1721017594.86,1,1,3,0,0.5500,0.7300,2.2900,-11.1250,-15.4375,-32.4375
1721017594.87,1,1,3,0,0.7700,2.2000,2.1500,14.7500,5.1250,-45.0625
1721017594.88,1,1,3,0,0.4600,2.6000,0.4800,38.9375,1.3750,-46.3125
1721017594.89,1,1,3,0,0.5500,2.0100,-0.6900,44.8750,-3.8125,-25.1250
1721017594.90,1,1,3,0,1.0200,0.3100,-1.3800,54.1875,-6.8125,11.4375
1721017594.91,1,1,3,0,2.3900,1.0500,-0.8100,45.5625,-9.2500,58.4375
1721017594.92,1,1,3,0,-0.1800,-2.5300,-0.1700,16.1875,35.6250,78.8750
1721017594.93,1,1,3,0,0.4700,-4.5800,0.4200,-29.3750,187.8750,49.5000
1721017594.94,1,1,3,0,-0.8300,-3.2900,1.8300,-76.1250,303.6250,-0.6250
1721017594.95,1,1,3,0,0.5000,-1.8700,-0.9300,-91.0000,329.2500,-26.0625
1721017594.96,1,1,3,0,-1.0600,-0.9700,0.4500,-95.7500,300.2500,-34.1250
1721017594.97,1,1,3,0,0.5800,-1.6100,0.6300,-95.3750,260.2500,-34.8125
1721017594.98,1,1,3,0,-1.6100,0.4900,2.6900,-91.7500,206.9375,-41.4375
1721017594.99,1,1,3,0,0.6600,-1.4800,-1.6300,-71.1875,173.3125,-51.3750
1721017595.00,1,1,3,0,-1.4900,3.3800,0.6300,-21.8125,72.3125,-54.9375
1721017595.01,1,1,3,0,-1.9500,0.8200,-0.5900,67.6250,-28.2500,-79.8750
1721017595.02,1,1,3,0,-3.3800,0.9800,-0.6800,112.4375,-104.8750,-61.1250
1721017595.03,1,1,3,0,-1.5300,-0.6700,-1.3600,81.0625,-143.4375,-53.6250
1721017595.04,1,1,3,0,-0.2400,-0.9800,-1.7100,46.1250,-144.3125,-28.3125
1721017595.05,1,1,3,0,0.5000,-0.0600,-0.9100,19.5625,-118.1250,5.3750
1721017595.06,1,1,3,0,0.4400,0.4600,-0.3300,-7.5000,-90.9375,22.6875
1721017595.07,1,1,3,0,1.4400,-0.5500,0.5300,-46.3750,-33.8750,17.9375
1721017595.08,1,1,3,0,1.0500,-1.3000,0.2500,-63.0625,49.6250,24.7500
1721017595.09,1,1,3,0,0.0200,0.3200,-0.2800,-21.5625,98.6250,2.4375
1721017595.10,1,1,3,0,-0.0800,1.1200,-0.6000,-4.7500,49.0000,6.0000
1721017595.11,1,1,3,0,0.8500,1.5200,0.0000,10.3750,12.6875,7.6250
1721017595.12,1,1,3,0,1.2300,0.6300,0.9900,10.6875,9.7500,7.7500
1721017595.13,1,1,3,0,3.1200,-5.3300,-1.6000,15.3125,19.9375,13.4375
1721017595.14,1,1,3,0,0.7900,0.8400,0.1800,48.1250,-10.6875,24.0000
1721017595.15,1,1,3,0,0.2200,0.4800,2.3500,48.0625,-48.0625,43.7500
1721017595.16,1,1,3,0,0.4600,0.4300,1.2900,8.1875,-20.0000,61.8125
1721017595.17,1,1,3,0,-0.3400,0.0500,-0.8900,-42.5000,49.5625,64.4375
1721017595.18,1,1,3,0,-0.5300,-0.3700,-1.3200,-45.5000,67.6250,78.6875
1721017595.19,1,1,3,0,-1.6500,-0.3700,-0.5300,-14.8750,39.2500,84.6250
1721017595.20,1,1,3,0,-2.2500,-0.2700,-0.3400,23.3750,-11.3750,75.2500
1721017595.21,1,1,3,0,-1.0400,0.0000,0.3700,42.8750,-60.0000,47.6875
1721017595.22,1,1,3,0,-0.5200,-0.0300,-0.1200,52.7500,-74.3125,27.0000
1721017595.23,1,1,3,0,0.0000,-0.4200,0.6300,59.6875,-74.4375,30.0000
1721017595.24,1,1,3,0,-0.3700,-0.0700,1.0800,61.0625,-96.3125,46.1875
1721017595.25,1,1,3,0,0.3500,-0.2600,0.0100,49.5000,-124.4375,56.1250
1721017595.26,1,1,3,0,0.3900,-0.2900,-0.4900,49.6875,-137.3750,58.8125
1721017595.27,1,1,3,0,0.6000,0.0600,-0.0800,51.8750,-132.8750,54.5000
1721017595.28,1,1,3,0,1.2100,0.5900,0.9300,46.5000,-101.0000,47.5625
1721017595.29,1,1,3,0,1.1400,0.9000,-0.0400,22.5625,-34.7500,36.3125
1721017595.30,1,1,3,0,1.3900,0.6600,-0.0100,-11.2500,45.6250,21.1250
1721017595.31,1,1,3,0,0.9400,0.0400,-0.2700,-32.8125,112.3750,13.2500
1721017595.32,1,1,3,0,0.1200,0.0700,-1.6200,-35.9375,144.1250,11.9375
1721017595.33,1,1,3,0,0.0000,0.3900,-1.2900,-17.6250,114.2500,11.3125
1721017595.34,1,1,3,0,0.2600,0.2000,-0.4000,16.3750,21.1250,1.8125
1721017595.35,1,1,3,0,0.4900,-2.5200,-1.2400,40.0625,-37.3125,-8.2500
1721017595.36,1,1,3,0,1.3700,-1.7700,0.7000,33.1875,-58.3750,24.3750
1721017595.37,1,1,3,0,1.3400,-0.8700,0.1700,60.2500,-55.3750,29.3750
1721017595.38,1,1,3,0,1.2500,0.4200,0.8300,80.0625,-94.1875,20.5000
1721017595.39,1,1,3,0,0.8800,1.2500,1.3900,82.1250,-101.6875,8.2500
1721017595.40,1,1,3,0,-0.2400,0.4000,-1.3900,49.4375,2.3750,-4.1875
1721017595.41,1,1,3,0,-1.2800,0.0200,-1.0800,13.3750,29.0000,-5.8125
1721017595.42,1,1,3,0,-0.9500,0.0300,-0.3400,-8.5000,16.5625,8.0625
1721017595.43,1,1,3,0,-0.0700,0.3200,-0.1000,-27.2500,27.1250,20.3125
1721017595.44,1,1,3,0,0.5600,-0.3200,0.3400,-39.2500,18.8750,22.5625
1721017595.45,1,1,3,0,1.0900,-0.6700,0.5100,-39.1250,-12.7500,14.6250
1721017595.46,1,1,3,0,2.6700,-1.2100,1.1800,-30.1250,-55.0625,15.1250
1721017595.47,1,1,3,0,2.4100,-0.7700,1.7000,-8.0000,-112.2500,21.6875
1721017595.48,1,1,3,0,2.1200,-0.9500,0.6800,13.8750,-145.0000,27.7500
1721017595.49,1,1,3,0,1.9500,-1.0600,1.4900,15.3750,-103.0000,23.2500
1721017595.50,1,1,3,0,3.1200,-0.5100,1.0300,24.2500,-63.6875,19.5000
1721017595.51,1,1,3,0,3.0200,-0.0600,4.5100,40.2500,-68.5000,20.4375
1721017595.52,1,1,3,0,1.7400,-0.6100,3.9500,36.0625,29.4375,0.2500
1721017595.53,1,1,3,0,1.4700,-0.5900,-1.4600,50.3750,185.1250,-29.5625
1721017595.54,1,1,3,0,1.1700,-0.4000,-0.1800,55.1250,207.8125,-32.0625
1721017595.55,1,1,3,0,1.3900,-0.5900,1.2200,40.2500,125.9375,-14.3125
1721017595.56,1,1,3,0,1.4700,-1.2500,1.9500,40.2500,115.3125,-15.5000
1721017595.57,1,1,3,0,0.5900,-0.0800,2.4100,52.3750,112.8750,-23.4375
1721017595.58,1,1,3,0,0.8500,0.6600,2.7200,60.1875,73.1250,-21.9375
1721017595.59,1,1,3,0,1.2500,0.6100,2.7000,45.1875,43.8750,-20.1875
1721017595.60,1,1,3,0,2.3500,0.1600,3.4800,9.1250,33.8125,-13.4375
1721017595.61,1,1,3,0,2.6500,0.0100,3.9400,-10.5625,0.5000,-5.3125
1721017595.62,1,1,3,0,2.7500,0.4800,4.1100,-13.7500,-47.5625,5.3750
1721017595.63,1,1,3,0,2.7700,1.3600,4.1400,-15.3750,-80.5000,8.6250
1721017595.64,1,1,3,0,2.1500,1.2900,4.7600,-21.9375,-88.8750,-4.0000
1721017595.65,1,1,3,0,2.2500,1.1300,4.3500,-35.0625,-61.5625,-13.1250
1721017595.66,1,1,3,0,1.7400,1.0500,4.4600,-39.9375,-63.2500,-17.6250
1721017595.67,1,1,3,0,1.6400,0.9400,4.6700,-38.6875,-90.2500,-19.7500
1721017595.68,1,1,3,0,1.6600,0.5700,4.6400,-36.3750,-106.7500,-18.6875
1721017595.69,1,1,3,0,1.8200,0.6100,4.3600,-36.4375,-123.1250,-19.6250
1721017595.70,1,1,3,0,1.6500,0.9300,3.9200,-36.7500,-141.4375,-21.0000
1721017595.71,1,1,3,0,2.0900,1.1700,3.5800,-43.0000,-169.0625,-21.1875
1721017595.72,1,1,3,0,1.8800,1.2400,3.5000,-54.2500,-191.7500,-17.4375
1721017595.73,1,1,3,0,1.9300,1.2200,3.7500,-64.3750,-209.8125,-13.6250
1721017595.74,1,1,3,0,1.9500,1.0100,3.9400,-72.6250,-222.2500,-16.8125
1721017595.75,1,1,3,0,1.4800,0.6600,4.2000,-72.9375,-217.3125,-20.6875
1721017595.76,1,1,3,0,1.2400,0.8500,4.6300,-68.1875,-199.4375,-22.2500
1721017595.77,1,1,3,0,1.6200,0.9900,4.9800,-64.1875,-171.2500,-27.6250
1721017595.78,1,1,3,0,1.3900,0.8000,5.4100,-66.7500,-137.5625,-34.8750
1721017595.79,1,1,3,0,0.6000,0.7800,5.1800,-65.4375,-139.0000,-42.7500
1721017595.80,1,1,3,0,-0.2400,0.9700,4.5300,-61.5000,-182.4375,-52.1250
1721017595.81,1,1,3,0,-0.6600,1.0200,4.1300,-67.1875,-228.3750,-54.8750
1721017595.82,1,1,3,0,-1.3800,0.7800,3.3400,-81.7500,-258.5000,-49.1250
1721017595.83,1,1,3,0,-1.7800,0.5800,3.2500,-93.5000,-273.3750,-46.3750
1721017595.84,1,1,3,0,-2.0500,0.5700,3.3400,-98.6875,-273.1250,-48.5625
1721017595.85,1,1,3,0,-2.4800,1.2200,3.1200,-96.9375,-250.8125,-55.5000
1721017595.86,1,1,3,0,-2.4600,1.5300,3.1700,-91.7500,-217.3750,-61.4375
1721017595.87,1,1,3,0,-2.5600,1.6400,3.3500,-86.9375,-196.9375,-61.5625
1721017595.88,1,1,3,0,-2.7400,1.7000,3.2800,-86.9375,-189.8750,-59.3750
1721017595.89,1,1,3,0,-3.5000,1.0400,2.8800,-91.8125,-203.9375,-53.9375
1721017595.90,1,1,3,0,-3.6600,0.7400,2.8600,-99.0625,-235.4375,-47.2500
1721017595.91,1,1,3,0,-4.0000,0.3600,3.0200,-110.3125,-275.5000,-40.1250
1721017595.92,1,1,3,0,-4.5300,-0.0300,2.8200,-124.4375,-299.5000,-36.3750
1721017595.93,1,1,3,0,-5.3600,-0.3500,2.0600,-141.1250,-314.2500,-33.7500
1721017595.94,1,1,3,0,-5.6700,-0.3000,1.9900,-157.9375,-328.3125,-30.6875
1721017595.95,1,1,3,0,-5.8900,-0.0700,2.1100,-166.7500,-335.3750,-30.6875
1721017595.96,1,1,3,0,-6.6900,1.1300,2.3300,-162.8125,-319.6875,-39.0625
1721017595.97,1,1,3,0,-7.2700,1.7800,2.7100,-149.2500,-278.0625,-53.0000
1721017595.98,1,1,3,0,-7.4800,2.5600,3.0400,-129.3750,-213.4375,-62.9375
1721017595.99,1,1,3,0,-7.6900,3.1600,3.6300,-102.7500,-168.0000,-67.0000
1721017596.00,1,1,3,0,-7.8600,3.7200,4.3200,-75.0000,-145.5625,-62.5000
1721017596.01,1,1,3,0,-7.4700,3.8500,4.4300,-47.8750,-148.8750,-50.6250
1721017596.02,1,1,3,0,-7.1600,3.9300,4.3300,-21.3125,-164.2500,-36.4375
1721017596.03,1,1,3,0,-7.2300,3.1500,3.5100,4.5625,-172.5000,-30.5000
1721017596.04,1,1,3,0,-7.0700,2.7700,3.2600,23.7500,-177.6875,-25.8750
1721017596.05,1,1,3,0,-7.1600,2.4800,3.1300,37.0625,-188.3750,-20.0000
1721017596.06,1,1,3,0,-7.2800,2.2900,2.8900,51.0000,-194.0000,-19.5000
1721017596.07,1,1,3,0,-8.0600,2.2700,2.1800,66.8750,-190.4375,-21.3750
1721017596.08,1,1,3,0,-8.2400,2.4000,1.9300,84.0625,-172.5000,-21.9375
1721017596.09,1,1,3,0,-8.3000,2.3500,1.7200,103.0625,-143.4375,-18.8125
1721017596.10,1,1,3,0,-8.3000,2.3900,1.5400,121.8125,-115.6875,-8.8125
1721017596.11,1,1,3,0,-8.0700,2.3900,1.8500,139.4375,-100.1875,4.5000
1721017596.12,1,1,3,0,-7.8300,2.0500,2.1000,157.1875,-88.5625,16.6875
1721017596.13,1,1,3,0,-7.5300,1.6200,2.3000,174.3750,-75.1250,27.3125
1721017596.14,1,1,3,0,-7.1100,0.9500,2.1700,191.9375,-60.8125,38.3750
1721017596.15,1,1,3,0,-7.0600,0.8100,2.1600,207.5000,-53.6875,45.8750
1721017596.16,1,1,3,0,-7.1200,0.6100,2.1800,217.9375,-49.0000,53.7500
1721017596.17,1,1,3,0,-7.1600,0.2900,2.0600,220.9375,-39.2500,63.9375
1721017596.18,1,1,3,0,-7.1700,-0.6900,1.4000,219.6875,-25.6250,70.9375
1721017596.19,1,1,3,0,-7.1300,-1.0500,1.2400,221.3125,-2.9375,71.0625
1721017596.20,1,1,3,0,-7.3100,-1.0800,1.1200,229.4375,34.6875,65.9375
1721017596.21,1,1,3,0,-6.6500,-0.4600,1.7400,242.1250,71.8750,64.4375
1721017596.22,1,1,3,0,-5.9800,-0.1500,1.9500,249.6875,84.6250,67.3750
1721017596.23,1,1,3,0,-5.7700,0.1900,2.0000,248.2500,73.6250,73.6250
1721017596.24,1,1,3,0,-6.1500,0.5000,2.3200,239.6250,56.0000,84.6875
1721017596.25,1,1,3,0,-6.7800,-0.1500,3.2300,224.5000,28.9375,102.1250
1721017596.26,1,1,3,0,-6.7900,-1.1500,3.5300,211.6250,2.6250,123.0625
1721017596.27,1,1,3,0,-6.7800,-2.2900,3.6000,206.3750,-16.2500,137.5000
1721017596.28,1,1,3,0,-6.1900,-4.1400,4.0300,208.9375,-30.8125,142.0000
1721017596.29,1,1,3,0,-5.0600,-4.3200,3.0600,216.2500,-44.1875,135.9375
1721017596.30,1,1,3,0,-4.1800,-3.8300,1.9300,230.3125,-55.8125,121.6875
1721017596.31,1,1,3,0,-3.6200,-3.5000,1.7900,237.6250,-78.1875,107.9375
1721017596.32,1,1,3,0,-4.8000,-3.0900,2.2100,228.1875,-70.3750,107.0625
1721017596.33,1,1,3,0,-4.6900,-3.2400,2.5800,212.5625,-32.1875,116.6875
1721017596.34,1,1,3,0,-5.0500,-3.7600,2.9600,197.6250,-9.4375,131.5625
1721017596.35,1,1,3,0,-3.9700,-6.0200,3.3200,196.6250,-26.6250,136.3125
1721017596.36,1,1,3,0,-3.5500,-6.4600,2.9500,211.4375,-40.0000,114.1250
1721017596.37,1,1,3,0,-2.6200,-6.0200,2.5500,230.4375,-22.1250,77.3125
1721017596.38,1,1,3,0,-1.8500,-5.4100,2.1500,242.5625,14.7500,39.3125
1721017596.39,1,1,3,0,-2.0900,-4.0400,2.6000,237.6250,66.7500,24.8750
1721017596.40,1,1,3,0,-1.6400,-3.5000,2.8900,219.0625,94.2500,32.3125
1721017596.41,1,1,3,0,-1.9500,-3.4300,3.1500,201.7500,100.8750,42.4375
1721017596.42,1,1,3,0,-2.0500,-3.4700,3.3400,192.7500,91.8750,50.1875
1721017596.43,1,1,3,0,-1.5900,-4.4700,2.9200,194.5000,74.1875,44.6875
1721017596.44,1,1,3,0,-1.0200,-4.5000,2.4300,200.6875,59.7500,30.0625
1721017596.45,1,1,3,0,-0.4900,-4.3800,1.7000,204.8125,69.1250,16.5000
1721017596.46,1,1,3,0,0.3600,-4.4500,1.8900,201.2500,85.5000,18.3125
1721017596.47,1,1,3,0,1.1400,-4.7700,1.7700,185.4375,94.6875,31.8125
1721017596.48,1,1,3,0,1.8400,-5.4000,1.5900,166.6875,87.3125,44.2500
1721017596.49,1,1,3,0,2.0200,-5.5100,1.4300,151.5000,57.0000,49.7500
1721017596.50,1,1,3,0,1.4300,-5.3400,1.2300,144.6250,33.0000,34.0625
1721017596.51,1,1,3,0,1.5400,-5.3800,0.9200,140.2500,47.5000,11.3750
1721017596.52,1,1,3,0,2.1400,-5.2300,0.5800,127.8125,68.0000,10.0625
1721017596.53,1,1,3,0,2.7200,-4.9500,0.8300,108.6875,67.3750,29.0000
1721017596.54,1,1,3,0,2.4000,-4.9800,0.9800,83.4375,55.3750,61.5000
1721017596.55,1,1,3,0,2.2100,-5.4000,1.5200,52.3750,26.6875,99.2500
1721017596.56,1,1,3,0,2.9000,-6.2000,1.5500,24.3125,-23.5000,134.1875
1721017596.57,0,1,3,0,3.7400,-7.9700,0.6700,20.1875,-72.4375,141.4375
1721017596.58,0,1,3,0,3.8800,-8.3400,0.3100,28.6250,-96.3750,122.8125
1721017596.59,0,1,3,0,4.0100,-8.3400,-0.1500,46.5625,-96.7500,88.1875
1721017596.60,0,1,3,0,3.7700,-8.4200,-0.6800,61.0625,-74.1250,53.6250
1721017596.61,0,1,3,0,3.2400,-7.9600,-0.4600,68.6250,-30.0625,28.3750
1721017596.62,0,1,3,0,3.0300,-7.6600,-0.4400,63.1875,0.1250,17.5000
1721017596.63,0,1,3,0,2.7200,-8.0300,-0.6700,45.6250,2.5625,21.1875
1721017596.64,0,1,3,0,3.9400,-8.6000,-1.3800,29.0000,-24.3125,28.5625
1721017596.65,0,1,3,0,3.9100,-8.4700,-1.8600,23.7500,-48.7500,20.8125
1721017596.66,0,1,3,0,3.6600,-8.2600,-2.0900,19.8125,-36.1250,-0.5000
1721017596.67,0,1,3,0,3.3700,-8.0600,-2.0700,8.6875,-8.1250,-18.6250
1721017596.68,0,1,3,0,2.6800,-7.2100,-2.0300,-8.1250,17.3750,-30.9375
1721017596.69,0,1,3,0,2.3300,-6.6700,-1.9200,-25.6250,38.3125,-38.3750
1721017596.70,0,1,3,0,2.0800,-6.2000,-1.8600,-48.0625,56.5625,-41.3750
1721017596.71,0,1,3,0,1.6100,-5.2100,-1.2100,-75.3750,72.6250,-41.1250
1721017596.72,0,1,3,0,1.4800,-4.9600,-0.8500,-104.3125,90.6250,-35.9375
1721017596.73,0,1,3,0,1.3000,-5.1900,-0.7900,-132.3125,104.5625,-25.3750
1721017596.74,0,1,3,0,1.1400,-5.2000,-0.5500,-154.6875,100.7500,-12.6250
1721017596.75,0,1,3,0,1.3000,-5.2200,-0.4400,-164.6250,79.2500,0.7500
1721017596.76,0,1,3,0,1.5600,-5.5800,-0.3800,-173.6250,55.6875,13.9375
1721017596.77,0,1,3,0,2.2000,-5.9500,-0.4600,-180.3750,36.6875,22.2500
1721017596.78,0,1,3,0,3.3100,-6.3500,-0.7100,-184.3125,43.6875,-7.1875
1721017596.79,0,1,3,0,3.2100,-6.4600,-0.8200,-184.3125,43.6875,-7.1875
1721017596.80,0,1,3,0,2.7500,-6.1400,-0.7500,-189.5000,66.6250,-37.6250
1721017596.81,0,1,3,0,2.0500,-5.5300,-0.5400,-196.5625,79.2500,-89.5625
1721017596.82,0,1,3,0,0.2700,-4.0700,0.0600,-206.3750,85.2500,-103.4375
1721017596.83,0,1,3,0,-0.4300,-3.5500,0.3700,-219.1250,86.6875,-108.0000
1721017596.84,0,1,3,0,-0.9300,-3.0500,0.5500,-232.2500,81.4375,-102.2500
1721017596.85,0,1,3,0,-1.2700,-2.5800,0.8000,-247.1875,74.8125,-93.3750
1721017596.86,0,1,3,0,-1.2800,-2.1800,1.0700,-259.7500,69.8750,-86.8125
1721017596.87,2,1,3,0,-1.0000,-2.1800,1.3100,-269.0625,63.5625,-85.6250
1721017596.88,2,1,3,0,-0.8600,-2.1700,1.5200,-274.5000,63.1875,-92.5000
1721017596.89,2,1,3,0,-0.8400,-1.6800,1.9200,-274.3750,65.8750,-104.9375
1721017596.90,2,1,3,0,-1.0600,-1.4000,1.9200,-275.9375,72.1250,-116.5625
1721017596.91,2,1,3,0,-1.4700,-1.1000,2.0000,-280.3125,70.1875,-120.6875
1721017596.92,2,1,3,0,-2.0600,-0.6200,2.1200,-283.0625,70.6250,-120.4375
1721017596.93,2,1,3,0,-3.0800,0.1700,2.1200,-282.2500,68.0625,-115.8750
1721017596.94,2,1,3,0,-3.4000,0.2800,2.3100,-279.5625,60.1875,-106.5625
1721017596.95,2,1,3,0,-3.2500,0.2800,2.4800,-276.8125,55.4375,-98.0000
1721017596.96,2,1,3,0,-3.2000,0.4900,2.7400,-272.0000,60.9375,-92.8750
1721017596.97,2,1,3,0,-3.1100,0.3700,2.9000,-269.6250,64.0625,-90.8750
1721017596.98,2,1,3,0,-2.8400,0.4400,3.1400,-274.3750,46.7500,-84.8750
1721017596.99,2,1,3,0,-2.7200,0.6900,3.6000,-287.7500,23.6250,-72.1250
1721017597.00,2,1,3,0,-3.5000,1.7600,4.2500,-303.1250,8.3125,-60.4375
1721017597.01,2,1,3,0,-4.0300,2.3700,4.6000,-317.2500,-0.8125,-43.1875
1721017597.02,2,1,3,0,-4.2900,2.9300,4.8800,-328.2500,-11.5000,-16.8125
1721017597.03,2,1,3,0,-3.8800,3.1200,5.2300,-328.6250,-19.3750,7.0000
1721017597.04,2,1,3,0,-3.2700,2.6800,5.3200,-309.5000,-12.8750,17.7500
1721017597.05,2,1,3,0,-2.7100,2.1900,5.2600,-269.7500,18.3125,11.0625
1721017597.06,2,1,3,0,-2.3900,1.8400,5.0300,-218.8750,73.7500,-10.7500
1721017597.07,2,1,3,0,-2.7100,2.3200,4.7000,-163.7500,141.4375,-40.5625
1721017597.08,2,1,3,0,-3.1800,2.7800,4.5400,-110.6875,210.1875,-66.7500
1721017597.09,2,1,3,0,-3.9700,3.1700,4.3500,-71.6875,270.8750,-75.1250
1721017597.10,2,1,3,0,-4.3500,3.5000,3.9000,-45.1875,310.8125,-72.1250
1721017597.11,2,1,3,0,-4.5900,3.7600,3.8600,-25.3750,327.1250,-65.0625
1721017597.12,2,1,3,0,-4.4100,3.2300,3.4400,-13.0625,339.7500,-53.3125
1721017597.13,2,1,3,0,-4.2000,2.7900,3.0200,-4.2500,354.6250,-40.2500
1721017597.14,2,1,3,0,-3.0800,2.1600,2.6800,-1.0000,367.1250,-33.8750
1721017597.15,2,1,3,0,-3.1700,2.2000,2.3300,10.6875,373.8750,-30.8125
1721017597.16,2,1,3,0,-3.3800,2.0800,1.8200,32.1250,368.6250,-26.3750
1721017597.17,2,1,3,0,-3.5200,2.1000,1.5700,51.1875,329.5000,-18.9375
1721017597.18,2,1,3,0,-3.5700,2.0900,1.2400,67.5000,289.8750,-14.1250
1721017597.19,2,1,3,0,-3.6500,2.0300,0.2300,80.8125,268.6875,-11.0000
1721017597.20,2,1,3,0,-3.9200,1.6900,-0.7500,82.7500,274.8125,-2.4375
1721017597.21,2,1,3,0,-4.2000,2.0800,-1.2800,75.4375,288.1250,11.1250
1721017597.22,2,1,3,0,-4.3100,2.1700,-1.1400,61.8125,279.8125,25.0625
1721017597.23,2,1,3,0,-3.8400,2.2400,-0.9600,47.6250,261.4375,33.8750
1721017597.24,2,1,3,0,-3.6700,2.3500,-1.1900,35.3750,246.6875,28.6875
1721017597.25,2,1,3,0,-4.6700,2.2900,-2.3900,19.3125,229.2500,21.8750
1721017597.26,2,1,3,0,-4.5000,2.3900,-2.4500,5.1250,211.1250,25.6875
1721017597.27,2,1,3,0,-4.4400,2.5900,-2.1800,-3.8750,201.8125,29.9375
1721017597.28,2,1,3,0,-4.5600,3.3300,-0.3900,-6.9375,180.1875,33.9375
1721017597.29,2,1,3,0,-4.3400,3.5500,0.4400,-11.3125,148.2500,40.0625
1721017597.30,2,1,3,0,-3.7600,3.5800,1.0200,-21.8750,129.5625,48.0000
1721017597.31,2,1,3,0,-3.4500,3.5200,1.3700,-29.5000,119.5625,55.1875
1721017597.32,2,1,3,0,-3.0900,3.4100,1.1400,-32.1250,100.8750,61.4375
1721017597.33,2,1,3,0,-3.4900,3.5200,0.6900,-35.2500,77.8750,70.0000
1721017597.34,2,1,3,0,-4.1300,3.6200,0.2900,-41.3750,77.6875,81.3750
1721017597.35,2,1,3,0,-4.7000,3.8900,0.5400,-55.2500,93.6875,98.8750
1721017597.36,2,1,3,0,-4.4400,4.2600,2.4600,-68.1250,96.0625,119.6250
1721017597.37,2,1,3,0,-4.0900,4.2400,3.7400,-69.5625,65.4375,141.5625
1721017597.38,2,1,3,0,-3.4400,4.0100,4.8000,-60.6875,20.6875,158.8125
1721017597.39,2,1,3,0,-2.4900,3.2700,4.0100,-48.0625,-29.2500,165.0000
1721017597.40,2,1,3,0,-2.2500,3.4900,3.2500,-35.6250,-78.3125,166.3125
1721017597.41,2,1,3,0,-2.9200,3.7900,3.2700,-32.7500,-74.3125,171.0000
1721017597.42,2,1,3,0,-4.1000,3.8100,3.4600,-45.6250,-20.6875,180.1250
1721017597.43,2,1,3,0,-4.9000,3.5300,5.1100,-57.1250,-1.8125,198.7500
1721017597.44,2,1,3,0,-4.6000,3.6300,6.6900,-55.6875,-24.9375,222.1250
1721017597.45,2,1,3,0,-3.8500,3.5500,7.9100,-41.0000,-58.7500,249.5625
1721017597.46,2,1,3,0,-3.7500,2.4000,8.2600,-11.8750,-79.0000,282.3750
1721017597.47,2,1,3,0,-3.3200,1.6700,8.3000,17.1875,-98.8125,306.2500
1721017597.48,2,1,3,0,-2.8300,0.7100,8.0400,40.6250,-123.8125,315.0625
1721017597.49,2,1,3,0,-2.6100,0.0500,7.9600,61.1250,-130.9375,320.0000
1721017597.50,2,1,3,0,-2.0100,-1.6300,7.8000,69.5000,-113.6875,319.7500
1721017597.51,2,1,3,0,-1.5400,-2.4600,8.0400,67.6250,-114.0625,314.3125
1721017597.52,2,1,3,0,-0.6700,-3.1000,8.3800,65.6875,-129.5625,303.0000
1721017597.53,2,1,3,0,-0.1000,-4.1400,8.6400,73.5000,-154.5625,283.5000
1721017597.54,2,1,3,0,-0.0600,-4.4800,8.1700,86.7500,-176.9375,261.1875
1721017597.55,2,1,3,0,0.0200,-4.9100,7.5900,96.1875,-191.6250,241.4375
1721017597.56,2,1,3,0,0.1100,-5.1100,7.2800,101.8125,-194.9375,228.3750
1721017597.57,2,1,3,0,0.0100,-5.5500,6.4600,105.0000,-191.3125,217.9375
1721017597.58,2,1,3,0,-0.4200,-5.3800,6.0400,100.3125,-194.1250,207.7500
1721017597.59,2,1,3,0,-0.8800,-5.3900,5.7800,92.3125,-201.4375,194.8750
1721017597.60,2,1,3,0,-1.0900,-5.3600,5.5900,89.5000,-218.1875,182.2500
1721017597.61,2,1,3,0,-0.8800,-5.3500,5.2900,90.5000,-235.6875,169.6875
1721017597.62,2,1,3,0,-0.8700,-5.4800,4.9300,89.6875,-248.9375,157.5625
1721017597.63,2,1,3,0,-0.9300,-5.6700,4.4100,89.4375,-256.1875,147.3125
1721017597.64,2,1,3,0,-0.6300,-5.5700,3.6200,87.2500,-261.8750,131.6250
1721017597.65,2,1,3,0,-0.6900,-5.5800,3.3300,82.2500,-261.5625,115.1250
1721017597.66,2,1,3,0,-0.9000,-5.6300,2.8700,77.5000,-252.7500,99.1250
1721017597.67,3,1,3,0,-1.1900,-5.7200,2.4500,71.6250,-239.9375,82.8125
1721017597.68,3,1,3,0,-1.3500,-5.9300,1.9200,63.0000,-226.4375,68.0000
1721017597.69,3,1,3,0,-1.3300,-6.1500,1.8000,56.5625,-224.3750,52.2500
1721017597.70,3,1,3,0,-1.2400,-6.3500,1.5500,51.2500,-231.8125,35.2500
1721017597.71,3,1,3,0,-1.1300,-6.2900,1.1100,43.1875,-241.6250,20.1875
1721017597.72,3,1,3,0,-1.3000,-6.1900,1.1600,27.9375,-244.1875,8.1875
1721017597.73,3,1,3,0,-1.5900,-6.3500,1.1500,11.4375,-237.6875,-1.0000
1721017597.74,3,1,3,0,-1.9800,-6.3000,1.2700,-1.3125,-243.1875,-10.0000
1721017597.75,3,1,3,0,-1.7800,-6.8400,1.1200,-15.1250,-262.8750,-24.3750
1721017597.76,3,1,3,0,-2.1000,-7.1800,0.8600,-26.6875,-285.5000,-38.4375
1721017597.77,3,1,3,0,-2.5500,-7.4200,0.4200,-40.4375,-293.5000,-51.1250
1721017597.78,3,1,3,0,-2.7300,-7.5900,0.0900,-55.5625,-283.5000,-60.5000
1721017597.79,3,1,3,0,-2.8900,-7.1700,-0.3700,-76.2500,-260.3125,-69.8125
1721017597.80,3,1,3,0,-3.1800,-6.8900,-0.3900,-95.6250,-238.1250,-78.3750
1721017597.81,3,1,3,0,-3.3800,-6.8700,-0.0500,-109.5625,-228.6250,-88.8125
1721017597.82,3,1,3,0,-4.0200,-6.2300,0.1900,-119.8125,-225.8125,-106.1875
1721017597.83,3,1,3,0,-4.3900,-6.0000,0.4800,-122.4375,-232.1875,-130.4375
1721017597.84,3,1,3,0,-4.7100,-5.8100,0.5500,-123.0625,-242.7500,-146.0625
1721017597.85,3,1,3,0,-5.2900,-5.5400,0.3600,-123.1875,-250.5625,-145.8125
1721017597.86,3,1,3,0,-6.7000,-4.8100,-0.7800,-128.3125,-249.0625,-134.6250
1721017597.87,3,1,3,0,-6.6800,-4.7000,-1.2400,-145.6875,-245.1250,-115.1250
1721017597.88,3,1,3,0,-6.7700,-4.6400,-1.5500,-172.0000,-232.2500,-96.8125
1721017597.89,3,1,3,0,-6.2600,-4.4200,-1.6100,-209.0000,-210.1250,-80.2500
1721017597.90,3,1,3,0,-5.6000,-4.9900,-1.3000,-251.2500,-199.1875,-63.0625
1721017597.91,3,1,3,0,-5.5000,-5.1100,-0.9600,-288.3750,-197.3125,-52.2500
1721017597.92,3,1,3,0,-6.1800,-4.5800,-0.4000,-310.8750,-181.8125,-45.1875
1721017597.93,3,1,3,0,-7.7000,-2.6000,0.4100,-329.3750,-175.1875,-37.0000
1721017597.94,3,1,3,0,-8.2200,-1.5000,0.9700,-342.1250,-170.5000,-18.7500
1721017597.95,3,1,3,0,-9.0800,-0.5700,1.3600,-351.1875,-154.1250,15.5000
1721017597.96,3,1,3,0,-9.9800,0.7700,1.6500,-368.0625,-147.0625,60.3125
1721017597.97,3,1,3,0,-9.7700,0.8100,2.0000,-394.8750,-158.5000,114.2500
1721017597.98,3,1,3,0,-9.2400,0.7400,2.1300,-421.3750,-178.4375,172.3750
1721017597.99,3,1,3,0,-8.6000,0.2700,2.2900,-446.3750,-197.7500,219.6875
1721017598.00,3,1,3,0,-7.3800,-0.2600,2.1800,-461.5625,-214.3750,256.4375
1721017598.01,3,1,3,0,-7.1600,-0.3800,2.3000,-462.3750,-227.1875,283.5000
1721017598.02,3,1,3,0,-7.0400,-0.4300,2.6300,-453.6875,-235.0000,303.1875
1721017598.03,3,1,3,0,-6.7500,-0.2800,3.1400,-438.2500,-222.1250,313.2500
1721017598.04,3,1,3,0,-6.1200,-0.3600,4.0900,-413.5625,-186.1250,315.6250
1721017598.05,3,1,3,0,-5.5000,-0.4400,4.5700,-380.1250,-152.0000,313.8125
1721017598.06,3,1,3,0,-4.6500,-0.1500,5.0500,-338.9375,-116.6875,301.2500
1721017598.07,3,1,3,0,-4.1300,0.3500,5.5100,-287.8750,-73.5625,276.8125
1721017598.08,3,1,3,0,-4.0000,0.4500,5.6200,-233.0625,-28.6250,244.4375
1721017598.09,3,1,3,0,-4.1200,0.6400,5.7300,-177.8750,9.3125,209.1875
1721017598.10,3,1,3,0,-4.3600,0.7800,5.5900,-125.8750,46.8125,176.5625
1721017598.11,3,1,3,0,-5.1500,1.5700,5.0600,-83.1250,82.2500,153.6875
1721017598.12,3,1,3,0,-5.4900,1.9300,5.1300,-53.3750,114.1875,142.4375
1721017598.13,3,1,3,0,-5.5300,2.1500,5.5700,-32.6250,144.4375,140.8125
1721017598.14,3,1,3,0,-5.7200,2.6000,6.6200,-21.3125,171.0000,151.3125
1721017598.15,3,1,3,0,-5.7300,2.4800,7.2200,-20.0625,177.5625,170.9375
1721017598.16,3,1,3,0,-5.4700,2.2600,7.8900,-23.9375,172.7500,196.1875
1721017598.17,3,1,3,0,-5.0000,1.7900,8.2900,-26.5625,157.5000,221.1250
1721017598.18,3,1,3,0,-3.6800,0.6500,7.8800,-19.5625,126.0000,238.9375
1721017598.19,3,1,3,0,-2.9400,0.4400,7.7500,-3.3750,96.6250,253.8750
1721017598.20,3,1,3,0,-2.5200,0.2000,7.8100,15.9375,105.0625,260.0625
1721017598.21,3,1,3,0,-2.2900,-0.8800,9.0700,36.5625,131.4375,254.3125
1721017598.22,3,1,3,0,-2.5200,-1.0900,9.8000,57.0000,149.7500,243.4375
1721017598.23,3,1,3,0,-2.8300,-1.2700,10.4300,85.1250,157.7500,227.1250
1721017598.24,3,1,3,0,-2.5300,-1.3600,10.9300,116.3125,158.4375,210.6875
1721017598.25,3,1,3,0,1.0500,-1.1600,11.3600,148.7500,155.0000,201.6250
1721017598.26,3,1,3,0,2.5400,-1.5100,11.3800,178.9375,150.9375,195.8125
1721017598.27,3,1,3,0,3.4500,-1.6100,11.3500,205.6875,154.3125,179.8125
1721017598.28,3,1,3,0,3.4800,-1.8100,11.6500,236.6250,165.3750,151.4375
1721017598.29,3,1,3,0,2.6100,-1.9700,12.7700,270.3750,180.8125,118.1875
1721017598.30,3,1,3,0,2.1000,-1.3600,13.1100,309.3750,199.2500,88.5000
1721017598.31,3,1,3,0,2.3200,-0.7800,12.7000,343.7500,209.6250,76.8125
1721017598.32,3,1,3,0,4.4600,-0.6500,13.0300,369.5625,207.8750,83.6875
1721017598.33,3,1,3,0,5.5400,-1.9300,12.9700,375.2500,203.3750,104.6875
1721017598.34,3,1,3,0,6.3900,-3.3500,12.7900,370.5625,165.3125,130.6875
1721017598.35,3,1,3,0,6.7800,-4.3700,12.2900,372.6250,109.8750,134.0625
1721017598.36,3,1,3,0,6.2000,-4.2500,10.8700,380.8750,83.6250,109.8750
1721017598.37,3,1,3,0,5.6200,-3.2200,10.1300,398.1250,89.2500,60.8750
1721017598.38,3,1,3,0,4.9300,-1.7800,10.0800,411.3750,108.8750,25.1250
1721017598.39,3,1,3,0,4.3200,-0.9300,12.0800,413.2500,134.4375,37.5625
1721017598.40,3,1,3,0,3.8400,-1.8000,12.2600,396.8750,125.4375,84.1875
1721017598.41,3,1,3,0,4.4200,-3.6800,11.9900,369.5000,64.1250,131.3750
1721017598.42,3,1,3,0,5.5900,-5.1400,11.8400,343.9375,-16.2500,159.8750
1721017598.43,3,1,3,0,7.0300,-7.5200,10.7400,327.2500,-76.3125,158.7500
1721017598.44,3,1,3,0,7.0200,-8.0300,10.0900,323.1875,-113.1250,130.0000
1721017598.45,3,1,3,0,6.6300,-8.6200,9.0200,320.0625,-131.0000,103.8750
1721017598.46,3,1,3,0,5.4600,-9.5300,7.7900,308.4375,-139.0625,93.1250
1721017598.47,3,1,3,0,4.9900,-10.0100,7.4700,289.3125,-141.8125,92.5625
1721017598.48,3,1,3,0,4.8700,-10.7000,7.1300,271.3750,-147.8750,92.7500
1721017598.49,3,1,3,0,5.1100,-11.3900,6.6400,256.5625,-163.0000,90.8750
1721017598.50,3,1,3,0,5.5700,-12.6800,4.9500,243.0000,-189.1875,84.1250
1721017598.51,3,1,3,0,5.0600,-12.9600,4.0300,228.8750,-215.5625,69.6250
1721017598.52,3,1,3,0,4.3200,-12.8400,3.2100,211.1875,-223.3125,50.8750
1721017598.53,3,1,3,0,3.3900,-12.4300,2.6800,188.1875,-212.3750,31.8125
1721017598.54,3,1,3,0,2.1800,-11.4100,2.3600,161.3750,-194.3750,16.1875
1721017598.55,3,1,3,0,1.8200,-11.1100,2.2600,135.8750,-186.9375,1.6250
1721017598.56,3,1,3,0,1.5500,-10.8200,1.8600,118.3750,-199.2500,-14.0000
1721017598.57,3,1,3,0,0.2300,-9.8800,0.7100,109.2500,-213.8750,-35.8125
1721017598.58,3,1,3,0,-0.8400,-9.2600,0.2500,102.0000,-207.3125,-57.5000
1721017598.59,3,1,3,0,-1.7800,-8.7600,-0.2600,91.1875,-185.4375,-73.1875
1721017598.60,3,1,3,0,-2.5100,-8.2300,-0.5800,75.5625,-161.1875,-78.0000
1721017598.61,3,1,3,0,-3.1800,-7.1900,-0.9200,54.6250,-147.8750,-70.6875
1721017598.62,3,1,3,0,-3.4100,-7.1100,-1.2600,29.3125,-149.6250,-59.2500
1721017598.63,3,1,3,0,-3.5800,-7.1300,-1.6900,2.0000,-165.1875,-47.1250
1721017598.64,3,1,3,0,-3.2100,-7.0900,-2.5900,-24.3125,-178.5625,-41.1875
1721017598.65,3,1,3,0,-3.3400,-6.9600,-2.4800,-51.6250,-169.6250,-42.7500
1721017598.66,3,1,3,0,-3.4400,-6.6300,-2.2400,-78.7500,-141.0625,-46.8750
1721017598.67,3,1,3,0,-3.6000,-6.3100,-1.9200,-100.7500,-127.5000,-48.0625
1721017598.68,3,1,3,0,-3.5000,-5.9200,-1.5100,-118.1875,-125.8125,-46.9375
1721017598.69,3,1,3,0,-3.3400,-5.6900,-1.3800,-127.3125,-124.3125,-52.1250
1721017598.70,3,1,3,0,-3.1900,-5.4100,-1.3500,-125.6875,-121.0625,-65.3125
1721017598.71,3,1,3,0,-3.3300,-5.3500,-1.4400,-117.1250,-103.4375,-76.6250
1721017598.72,3,1,3,0,-3.7100,-4.7700,-1.3200,-108.5625,-83.1250,-84.1875
1721017598.73,3,1,3,0,-4.0100,-4.5700,-1.3300,-106.2500,-59.3125,-90.5000
1721017598.74,3,1,3,0,-4.3200,-4.3700,-1.4700,-110.6250,-47.3750,-91.9375
1721017598.75,3,1,3,0,-4.9800,-3.4700,-1.9800,-121.6250,-52.8750,-90.1250
1721017598.76,3,1,3,0,-5.3400,-3.0700,-1.8200,-136.0625,-63.0000,-85.0000
1721017598.77,3,1,3,0,-5.4100,-2.8900,-1.8100,-153.6250,-66.1875,-72.0000
1721017598.78,3,1,3,0,-5.1700,-2.7800,-2.0600,-173.8125,-75.3750,-60.1875
1721017598.79,3,1,3,0,-5.6900,-2.5400,-2.5000,-190.6250,-86.8750,-51.6875
1721017598.80,3,1,3,0,-6.1300,-2.3300,-2.5100,-208.0000,-85.4375,-44.1875
1721017598.81,3,1,3,0,-6.8200,-2.1100,-2.5200,-226.9375,-78.6875,-40.0625
1721017598.82,3,1,3,0,-7.8600,-1.3200,-2.6600,-247.8125,-72.9375,-34.3125
1721017598.83,3,1,3,0,-8.2900,-0.8600,-2.2500,-274.9375,-71.0000,-20.3750
1721017598.84,3,1,3,0,-8.7600,-0.5000,-1.8400,-305.6250,-55.7500,-0.1875
1721017598.85,3,1,3,0,-8.8800,0.0500,-1.3500,-334.3125,-43.7500,19.4375
1721017598.86,3,1,3,0,-8.9800,1.1000,-0.1000,-361.0625,-37.3125,37.2500
1721017598.87,3,1,3,0,-9.3700,1.6300,0.6800,-383.6250,-29.8125,58.4375
1721017598.88,3,1,3,0,-9.4500,1.9100,1.5400,-403.0000,-29.0625,82.8750
1721017598.89,3,1,3,0,-9.2100,2.0100,3.0100,-418.0000,-33.7500,105.0625
1721017598.90,3,1,3,0,-8.8300,2.0600,3.7100,-422.6875,-41.7500,123.8125
1721017598.91,3,1,3,0,-8.5600,2.3200,4.3600,-417.1875,-45.6875,139.7500
1721017598.92,3,1,3,0,-8.3500,2.5300,4.9200,-402.0625,-48.0000,153.2500
1721017598.93,3,1,3,0,-7.6000,2.7900,5.5300,-379.5625,-47.1875,163.8750
1721017598.94,3,1,3,0,-7.0400,3.0000,5.9400,-349.3750,-41.0000,171.0625
1721017598.95,3,1,3,0,-6.4000,3.1800,6.3100,-309.4375,-22.4375,170.0625
1721017598.96,3,1,3,0,-5.9700,3.3400,6.7700,-260.1875,3.8125,161.5000
1721017598.97,3,1,3,0,-5.5000,3.7500,8.0200,-205.0000,35.8125,143.8125
1721017598.98,3,1,3,0,-5.6900,3.8900,8.5700,-148.7500,71.3125,119.1250
1721017598.99,3,1,3,0,-6.1300,4.1800,9.0900,-93.5000,101.1250,96.8750
1721017599.00,3,1,3,0,-6.8100,5.2500,9.3700,-41.0625,120.8125,83.3750
1721017599.01,3,1,3,0,-6.9500,5.6900,9.0700,1.0625,131.2500,84.5625
1721017599.02,3,1,3,0,-7.0600,5.8700,8.9200,23.8125,140.2500,105.7500
1721017599.03,3,1,3,0,-6.9100,5.7500,9.2400,26.1250,138.5000,148.6875
1721017599.04,3,1,3,0,-5.3300,3.6200,10.9000,15.2500,113.0625,196.1250
1721017599.05,3,1,3,0,-3.9600,2.4900,11.5700,5.1875,55.1250,232.5625
1721017599.06,3,1,3,0,-2.8200,1.2100,11.9500,7.5000,-23.0000,244.6875
1721017599.07,3,1,3,0,-0.6100,-0.6600,10.7000,29.8750,-96.1250,239.4375
1721017599.08,3,1,3,0,0.0200,-0.8600,10.0000,61.6875,-143.6875,218.3750
1721017599.09,3,1,3,0,0.4200,-0.7500,9.3500,94.9375,-147.7500,182.2500
1721017599.10,3,1,3,0,0.4200,-0.5900,8.9000,134.1250,-120.3125,151.5000
1721017599.11,3,1,3,0,-0.5000,-0.7400,8.7500,169.6875,-83.6250,139.2500
1721017599.12,3,1,3,0,-0.2600,-0.8800,8.9000,199.0000,-60.5000,137.0000
1721017599.13,3,1,3,0,0.7300,-1.5100,9.2900,221.9375,-58.8750,133.6250
1721017599.14,3,1,3,0,3.6200,-3.7900,9.3500,244.6250,-76.1875,128.6250
1721017599.15,3,1,3,0,5.3900,-4.7800,8.5600,273.3750,-109.1250,115.3750
1721017599.16,3,1,3,0,6.5000,-5.9500,7.5100,295.5000,-148.5625,100.5625
1721017599.17,3,1,3,0,7.0800,-6.7700,6.0400,304.6875,-178.4375,84.8125
1721017599.18,3,1,3,0,6.6700,-7.3800,4.3900,305.0000,-201.3750,61.5625
1721017599.19,3,1,3,0,6.4100,-6.7400,3.5800,304.0000,-179.7500,20.0000
1721017599.20,3,1,3,0,5.9500,-5.4700,3.5300,306.7500,-126.6875,-24.6250
1721017599.21,3,1,3,0,5.5900,-4.4900,4.0100,311.0000,-73.9375,-63.3125
1721017599.22,3,1,3,0,6.9900,-5.4100,4.8400,317.7500,-46.7500,-71.8125
1721017599.23,3,1,3,0,7.9300,-6.4600,4.0400,321.6250,-71.5625,-49.6875
1721017599.24,3,1,3,0,8.0400,-7.3600,3.0300,325.8125,-112.8125,-34.3125
1721017599.25,3,1,3,0,7.3000,-8.4200,1.1500,325.6875,-128.4375,-34.8125
1721017599.26,3,1,3,0,7.0200,-9.0400,-0.3100,319.3750,-143.3125,-49.1875
1721017599.27,3,1,3,0,5.8000,-9.0000,-1.1900,318.6250,-127.9375,-81.3750
1721017599.28,3,1,3,0,4.5600,-8.4500,-1.2600,308.6250,-75.7500,-100.3750
1721017599.29,3,1,3,0,4.3100,-7.9700,0.0100,285.9375,-36.7500,-90.3125
1721017599.30,3,1,3,0,4.6600,-8.4100,0.5800,255.8750,-39.8125,-60.8125
1721017599.31,3,1,3,0,5.3700,-9.0300,0.8000,226.6250,-71.3125,-29.8750
1721017599.32,3,1,3,0,5.6600,-9.9700,0.2500,202.5625,-112.6875,-16.3750
1721017599.33,3,1,3,0,5.0900,-10.0500,-0.1100,186.1875,-134.9375,-20.6875
1721017599.34,3,1,3,0,4.4600,-10.0000,-0.3300,172.8750,-137.8125,-30.3750
1721017599.35,3,1,3,0,3.9900,-9.8900,-0.6600,162.4375,-134.3750,-35.6875
1721017599.36,3,1,3,0,3.1500,-9.6400,-1.2600,151.3125,-129.7500,-35.7500
1721017599.37,3,1,3,0,2.8700,-9.8800,-1.6900,128.6875,-135.6250,-38.1250
1721017599.38,3,1,3,0,2.3700,-9.9500,-2.1400,101.9375,-147.8125,-46.1250
1721017599.39,3,1,3,0,1.4500,-9.5900,-2.8600,78.4375,-149.5625,-57.0625
1721017599.40,3,1,3,0,0.9900,-9.1500,-2.8500,60.3750,-142.4375,-69.0625
1721017599.41,3,1,3,0,0.4600,-8.6100,-2.5900,45.9375,-126.1875,-82.8125
1721017599.42,3,1,3,0,-0.0900,-8.0900,-2.3600,32.0000,-104.4375,-92.0625
1721017599.43,3,1,3,0,-0.3600,-7.3300,-2.1800,17.3750,-96.3125,-92.4375
1721017599.44,3,1,3,0,-0.4500,-7.3100,-2.1000,-1.2500,-99.8125,-90.1250
1721017599.45,3,1,3,0,-0.4300,-7.2800,-1.9300,-17.8750,-102.5000,-90.8750
1721017599.46,3,1,3,0,-0.5000,-7.2000,-1.6400,-33.1250,-101.5625,-97.8125
1721017599.47,3,1,3,0,-1.0000,-6.8900,-1.3500,-47.4375,-93.6250,-107.8125
1721017599.48,3,1,3,0,-1.5300,-6.6700,-1.0800,-60.1875,-84.8750,-115.1250
1721017599.49,3,1,3,0,-2.0700,-6.4800,-0.8300,-73.9375,-73.6250,-115.8125
1721017599.50,3,1,3,0,-2.4600,-6.0400,-0.6000,-87.9375,-64.2500,-109.1250
1721017599.51,3,1,3,0,-2.5400,-5.8900,-0.5800,-97.0625,-59.1250,-102.1875
1721017599.52,3,1,3,0,-2.8800,-5.7200,-0.6900,-102.2500,-53.6250,-100.2500
1721017599.53,3,1,3,0,-3.5500,-5.4900,-0.7200,-106.1875,-45.0625,-101.1250
1721017599.54,3,1,3,0,-4.5300,-4.5800,-0.6600,-113.7500,-41.6250,-96.1875
1721017599.55,3,1,3,0,-5.0000,-4.2900,-0.2800,-130.4375,-39.2500,-86.0000
1721017599.56,3,1,3,0,-5.1200,-4.2500,0.0900,-153.5625,-34.8750,-72.0625
1721017599.57,3,1,3,0,-4.7600,-4.3700,0.9800,-181.4375,-42.5625,-54.3750
1721017599.58,3,1,3,0,-4.4600,-4.4600,1.5800,-206.6250,-47.1875,-35.9375
1721017599.59,3,1,3,0,-4.0600,-4.5300,1.9700,-220.6250,-44.0625,-25.2500
1721017599.60,3,1,3,0,-3.8600,-4.3300,2.2100,-219.8750,-36.7500,-25.1250
1721017599.61,3,1,3,0,-4.2200,-4.2800,2.0800,-208.1250,-24.0625,-35.8125
1721017599.62,3,1,3,0,-4.6000,-4.0300,1.9300,-198.7500,-16.5625,-48.1250
1721017599.63,3,1,3,0,-5.1200,-3.8800,1.9200,-195.9375,-12.7500,-53.5000
1721017599.64,3,1,3,0,-6.3900,-3.5600,1.8900,-204.0000,-6.9375,-50.8750
1721017599.65,3,1,3,0,-7.0000,-3.0900,2.2300,-225.8750,-3.5000,-37.6875
1721017599.66,3,1,3,0,-7.4200,-2.6400,2.5100,-257.1875,-1.3125,-19.8125
1721017599.67,3,1,3,0,-7.8500,-2.1400,3.0700,-292.1250,-8.5625,1.3125
1721017599.68,3,1,3,0,-6.9000,-2.5100,3.8000,-319.8125,-31.0625,25.6250
1721017599.69,3,1,3,0,-6.6500,-2.4400,4.1200,-322.1250,-52.7500,36.2500
1721017599.70,3,1,3,0,-6.9400,-2.0600,4.1900,-297.8750,-40.9375,27.9375
1721017599.71,3,1,3,0,-7.6000,-1.4700,4.3500,-265.3125,-3.1875,13.2500
1721017599.72,3,1,3,0,-8.8000,-0.2400,4.7000,-239.5000,30.1875,6.1875
1721017599.73,3,1,3,0,-9.3300,0.2700,5.0100,-229.7500,53.6250,9.8750
1721017599.74,3,1,3,0,-9.5900,0.8700,5.1500,-231.7500,68.6250,23.1250
1721017599.75,3,1,3,0,-9.8700,1.8700,5.5500,-241.3125,72.5625,41.5000
1721017599.76,3,1,3,0,-9.8200,2.1000,5.8000,-254.2500,65.0625,64.5000
1721017599.77,3,1,3,0,-9.4500,1.9800,6.2000,-263.4375,49.9375,90.1250
1721017599.78,3,1,3,0,-8.9600,1.8400,6.6600,-260.0625,35.3750,105.9375
1721017599.79,3,1,3,0,-7.5400,1.9200,7.4800,-242.6250,30.0625,109.3750
1721017599.80,3,1,3,0,-7.1700,2.6100,7.7200,-214.5625,41.1250,107.1250
1721017599.81,3,1,3,0,-6.7800,3.2700,7.9100,-180.6875,62.3750,104.0000
1721017599.82,3,1,3,0,-6.0500,4.2400,8.2800,-146.8750,81.3125,100.9375
1721017599.83,3,1,3,0,-6.0400,4.6900,8.2400,-117.8125,98.0000,103.8750
1721017599.84,3,1,3,0,-6.0900,5.0100,8.2700,-92.2500,104.1250,114.8125
1721017599.85,3,1,3,0,-6.0300,4.8700,8.4500,-70.0000,90.9375,126.3125
1721017599.86,3,1,3,0,-6.0000,3.4500,9.0300,-48.8750,79.4375,139.4375
1721017599.87,3,1,3,0,-5.6600,3.0300,8.9800,-37.1250,62.9375,154.1875
1721017599.88,3,1,3,0,-4.9300,2.6900,8.6800,-36.1250,29.1875,170.1250
1721017599.89,3,1,3,0,-3.4400,2.6000,7.8600,-38.9375,-17.1875,187.1250
1721017599.90,3,1,3,0,-1.4700,2.4600,6.4500,-43.3125,-62.7500,204.0625
1721017599.91,3,1,3,0,-1.4900,2.5000,6.6500,-53.6250,-88.6875,214.5000
1721017599.92,3,1,3,0,-1.8600,2.4400,7.4700,-56.2500,-91.0000,210.1875
1721017599.93,3,1,3,0,-1.5200,1.3100,9.3900,-43.5625,-85.5625,194.3750
1721017599.94,3,1,3,0,-0.8600,0.5300,9.8600,-17.1250,-84.0625,178.4375
1721017599.95,3,1,3,0,0.4500,-0.0600,9.5400,26.6875,-94.2500,166.4375
1721017599.96,3,1,3,0,2.1300,-0.4500,8.3200,77.6250,-116.3750,146.5000
1721017599.97,3,1,3,0,4.9700,-1.8800,4.7300,122.9375,-137.9375,124.1875
1721017599.98,3,1,3,0,5.3000,-1.4400,3.8400,167.1250,-132.8750,109.3125
1721017599.99,3,1,3,0,4.4400,-1.2900,3.3000,206.5625,-70.5625,69.5625
1721017600.00,3,1,3,0,3.0200,-0.9400,4.3000,232.1875,22.6250,14.1875
1721017600.01,3,1,3,0,2.7500,-0.9200,5.3100,238.5000,79.6875,-25.2500
1721017600.02,3,1,3,0,3.5300,-1.0700,5.8100,250.4375,83.6875,-50.4375
1721017600.03,3,1,3,0,5.0900,-1.3800,5.0300,273.2500,82.7500,-64.8750
1721017600.04,3,1,3,0,7.9400,-1.4200,3.0600,311.1250,85.3750,-63.5000
1721017600.05,3,1,3,0,7.9400,-1.6000,2.8000,334.4375,101.3125,-57.1875
1721017600.06,3,1,3,0,7.5900,-1.5100,2.8900,349.3125,136.5000,-65.3125
1721017600.07,3,1,3,0,6.5000,-1.3200,3.2900,365.3125,152.8750,-87.3125
1721017600.08,3,1,3,0,6.1200,-1.6000,3.0300,380.5625,152.5625,-111.3125
1721017600.09,3,1,3,0,6.3000,-2.0000,2.4600,391.8750,151.5625,-122.9375
1721017600.10,3,1,3,0,6.6600,-2.3400,1.9800,393.8750,147.0000,-107.8125
1721017600.11,3,1,3,0,7.5000,-3.1900,1.9800,380.1250,142.0000,-70.5625
1721017600.12,3,1,3,0,7.7200,-3.6600,1.8400,348.1875,122.9375,-28.5000
1721017600.13,3,1,3,0,7.5400,-4.3800,2.0500,308.3750,89.1250,2.0000
1721017600.14,3,1,3,0,7.5000,-4.9100,2.2200,271.2500,52.6250,16.8125
1721017600.15,3,1,3,0,7.7500,-6.1200,3.0500,243.1875,16.3750,27.0000
1721017600.16,3,1,3,0,8.1100,-7.0900,3.1700,226.2500,-9.0000,30.1250
1721017600.17,3,1,3,0,8.6500,-8.1600,3.1800,221.5000,-26.3750,27.4375
1721017600.18,3,1,3,0,9.8300,-10.1000,3.2500,214.5625,-36.9375,29.6250
1721017600.19,3,1,3,0,9.8500,-10.7800,3.0100,198.5000,-43.3750,37.6250
1721017600.20,3,1,3,0,9.5800,-11.0000,2.6000,181.8750,-47.8750,38.0625
1721017600.21,3,1,3,0,8.9200,-10.9100,2.2000,162.1875,-56.2500,32.5000
1721017600.22,3,1,3,0,7.0700,-10.1900,1.6700,132.1250,-76.8750,20.5625
1721017600.23,3,1,3,0,6.1100,-9.8600,1.6000,98.6875,-101.9375,11.8750
1721017600.24,3,1,3,0,5.4700,-9.7600,1.5100,67.8750,-126.4375,11.3750
1721017600.25,3,1,3,0,5.1800,-10.0800,0.5200,44.8750,-149.5625,10.4375
1721017600.26,3,1,3,0,4.7800,-9.9700,0.0700,30.1875,-167.0000,1.0000
1721017600.27,3,1,3,0,4.0000,-9.6200,-0.3500,21.8750,-171.7500,-18.7500
1721017600.28,3,1,3,0,2.8800,-9.0100,-0.7300,13.7500,-163.8750,-42.3125
1721017600.29,3,1,3,0,0.7600,-7.9900,-1.6400,0.7500,-152.5625,-62.3750
1721017600.30,3,1,3,0,0.0600,-7.7200,-2.0100,-15.8125,-142.8125,-72.5625
1721017600.31,3,1,3,0,-0.3800,-7.6300,-2.2800,-35.9375,-134.8750,-72.1250
1721017600.32,3,1,3,0,-1.1800,-7.6800,-2.7800,-59.5625,-125.1250,-69.6250
1721017600.33,3,1,3,0,-1.1400,-7.5500,-2.6800,-84.6875,-114.1250,-66.0625
1721017600.34,3,1,3,0,-1.1600,-7.2600,-2.2900,-108.7500,-111.4375,-65.9375
1721017600.35,3,1,3,0,-1.4100,-6.8300,-1.6800,-131.5000,-109.6875,-70.7500
1721017600.36,3,1,3,0,-2.3200,-5.3300,-0.7600,-152.6250,-107.3750,-75.5000
1721017600.37,3,1,3,0,-2.8200,-4.9000,-0.4200,-173.1250,-107.5625,-72.8125
1721017600.38,3,1,3,0,-3.1300,-4.4900,-0.1000,-196.0625,-117.1250,-60.0625
1721017600.39,3,1,3,0,-3.4300,-4.3600,0.2900,-219.1875,-136.3125,-40.6875
1721017600.40,3,1,3,0,-4.2100,-4.6400,0.0000,-239.2500,-157.4375,-22.0625
1721017600.41,3,1,3,0,-4.5900,-4.8000,0.0700,-251.7500,-178.6250,-13.8125
1721017600.42,3,1,3,0,-4.6600,-5.1300,-0.1600,-254.7500,-181.3750,-15.2500
1721017600.43,3,1,3,0,-5.9000,-4.5300,-0.4200,-248.6875,-168.6250,-23.4375
1721017600.44,3,1,3,0,-6.7100,-3.6500,-0.1400,-242.5000,-129.8750,-33.5625
1721017600.45,3,1,3,0,-7.6400,-2.7600,0.3700,-243.6250,-83.3125,-41.6250
1721017600.46,3,1,3,0,-8.6100,-2.1300,0.9000,-255.1875,-51.1250,-35.0625
1721017600.47,3,1,3,0,-10.3800,-0.8300,1.5400,-281.7500,-40.6250,-11.6875
1721017600.48,3,1,3,0,-11.0300,-0.3600,2.0200,-323.6250,-49.8750,17.6250
1721017600.49,3,1,3,0,-11.4300,0.4400,2.8400,-368.9375,-75.6250,47.6250
1721017600.50,3,1,3,0,-11.8400,2.1300,4.3700,-410.2500,-104.6875,83.6250
1721017600.51,3,1,3,0,-11.5300,2.8900,5.3700,-447.4375,-117.1875,121.7500
1721017600.52,3,1,3,0,-11.0200,3.3200,6.3700,-472.9375,-127.9375,160.5000
1721017600.53,3,1,3,0,-10.5900,3.4600,7.2600,-479.1875,-136.9375,192.2500
1721017600.54,3,1,3,0,-9.3300,3.5900,8.2600,-470.8750,-147.3125,220.1875
1721017600.55,3,1,3,0,-8.4000,3.7100,8.8700,-448.0625,-160.7500,237.7500
1721017600.56,3,1,3,0,-7.2300,3.7800,9.4600,-407.0625,-162.2500,240.5625
1721017600.57,3,1,3,0,-6.1000,3.8800,9.8300,-350.1250,-139.5000,226.6875
1721017600.58,3,1,3,0,-4.4100,4.7700,10.0500,-282.5000,-94.8125,197.7500
1721017600.59,3,1,3,0,-4.1700,5.8200,9.7900,-213.6875,-44.0000,163.8750
1721017600.60,3,1,3,0,-4.4200,7.1400,9.6100,-163.8750,1.5000,139.4375
1721017600.61,3,1,3,0,-4.7600,7.8300,9.9900,-153.1250,1.1250,144.8125
1721017600.62,3,1,3,0,-4.3700,7.6800,10.3700,-165.1875,-52.0000,167.5625
1721017600.63,3,1,3,0,-4.1500,6.9600,10.5100,-169.8750,-98.6250,191.7500
1721017600.64,3,1,3,0,-4.0400,6.0600,10.6900,-162.1875,-140.6875,208.5000
1721017600.65,3,1,3,0,-3.0400,4.2800,9.4500,-139.9375,-192.0625,210.0000
1721017600.66,3,1,3,0,-1.6600,3.6100,8.0900,-105.1250,-237.8125,204.0000
1721017600.67,3,1,3,0,-0.1800,3.2500,6.9000,-62.4375,-266.0000,192.3125
1721017600.68,3,1,3,0,0.4100,2.4900,5.6900,-27.0000,-262.5000,177.5000
1721017600.69,3,1,3,0,0.3700,2.2100,5.9200,2.0000,-207.1250,154.6250
1721017600.70,3,1,3,0,0.7100,1.8700,6.3700,31.6875,-152.6250,128.3750
1721017600.71,3,1,3,0,0.6600,1.5900,6.5300,50.5625,-144.1875,100.1875
1721017600.72,3,1,3,0,-0.5000,0.7100,4.9000,67.8125,-159.0625,81.1250
1721017600.73,3,1,3,0,-0.2700,0.6600,3.2200,110.1250,-193.8125,71.1250
1721017600.74,3,1,3,0,0.0900,0.2700,1.7300,110.1250,-193.8125,71.1250
1721017600.75,3,1,3,0,2.0300,-0.5300,0.3900,119.8125,-174.1250,67.5000
1721017600.76,3,1,3,0,3.3800,-1.1700,1.1500,119.8125,-116.6250,59.8750
1721017600.77,3,1,3,0,4.6800,-1.8400,2.3000,119.8125,-48.5000,45.6250
1721017600.78,3,1,3,0,5.0600,-2.4000,3.1100,136.4375,-3.2500,-19.3125
1721017600.79,3,1,3,0,4.1700,-2.6000,4.0400,160.6250,-18.9375,-47.3750
1721017600.80,3,1,3,0,3.7500,-2.4200,3.3400,185.5000,-30.6875,-65.6250
1721017600.81,3,1,3,0,4.1500,-2.0800,1.9500,211.2500,-19.7500,-84.1250
1721017600.82,3,1,3,0,4.0800,-1.3200,0.8300,229.1250,23.2500,-87.2500
1721017600.83,3,1,3,0,3.1100,-1.0300,0.3400,229.7500,50.6250,-86.1875
1721017600.84,3,1,3,0,2.9500,-1.0700,0.7700,223.5000,64.0000,-90.2500
1721017600.85,3,1,3,0,2.9900,-1.3400,1.1100,221.2500,77.4375,-100.3750
1721017600.86,3,1,3,0,2.9200,-2.5200,3.0400,226.6250,92.6875,-120.2500
1721017600.87,3,1,3,0,3.2700,-2.9500,3.6000,253.8750,133.3125,-148.3750
1721017600.88,3,1,3,0,3.1100,-2.1600,3.5800,297.8750,194.6875,-177.9375
1721017600.89,3,1,3,0,3.3100,-1.2500,2.8900,340.3750,238.1250,-205.6250
1721017600.90,3,1,3,0,3.0900,-0.2200,2.6100,375.5000,280.8125,-193.4375
1721017600.91,3,1,3,0,3.7000,-0.3000,2.5900,386.1250,287.3125,-156.8750
1721017600.92,3,1,3,0,4.2700,-0.7000,2.7300,389.0000,265.7500,-123.7500
1721017600.93,3,1,3,0,6.4700,-3.3900,2.9300,389.5625,220.3750,-111.0000
1721017600.94,3,1,3,0,7.5100,-4.6100,1.8800,405.3750,182.0625,-137.8125
1721017600.95,3,1,3,0,7.8600,-4.7500,1.3700,424.3125,207.4375,-187.0000
1721017600.96,3,1,3,0,7.5300,-4.7000,1.3300,454.2500,267.9375,-219.0625
1721017600.97,3,1,3,0,8.7600,-4.1400,0.6000,482.3750,293.3750,-215.1250
1721017600.98,3,1,3,0,8.4600,-3.3500,0.4800,485.8750,306.8125,-192.9375
1721017600.99,3,1,3,0,7.6500,-3.8800,0.2800,478.2500,319.1875,-176.3750
1721017601.00,3,1,3,0,7.0500,-4.4800,1.9000,467.5000,302.0000,-135.4375
1721017601.01,3,1,3,0,8.1600,-5.9400,2.3300,440.8750,256.0625,-101.0000
1721017601.02,3,1,3,0,9.4600,-7.4200,2.5100,397.9375,186.0625,-69.8750
1721017601.03,3,1,3,0,11.1500,-8.7700,2.5900,344.8125,115.0000,-32.5000
1721017601.04,3,1,3,0,11.9700,-10.3600,3.1100,283.5000,61.0000,2.7500
1721017601.05,3,1,3,0,11.6300,-10.4600,3.4600,219.7500,16.1250,30.6250
1721017601.06,3,1,3,0,11.0800,-10.3700,3.8800,157.6875,-40.0625,56.1875
1721017601.07,3,1,3,0,10.6500,-10.1900,4.1400,107.8750,-92.8125,75.6250
1721017601.08,3,1,3,0,10.0900,-10.5600,4.1100,73.6875,-135.9375,80.2500
1721017601.09,3,1,3,0,10.0000,-10.6500,3.5400,60.4375,-169.1250,70.7500
1721017601.10,3,1,3,0,9.4300,-10.4600,2.8500,58.3750,-176.0000,53.3750
1721017601.11,3,1,3,0,7.2000,-8.6500,1.7700,56.1250,-160.1875,35.6250
1721017601.12,3,1,3,0,5.8200,-7.5400,1.5600,47.5000,-146.1250,28.4375
1721017601.13,3,1,3,0,4.4400,-6.7700,1.5600,32.0625,-138.7500,32.3750
1721017601.14,3,1,3,0,3.3600,-6.0100,1.5700,8.1250,-144.2500,44.5000
1721017601.15,3,1,3,0,2.0500,-5.5800,1.1900,-25.5000,-166.3750,57.3125
1721017601.16,3,1,3,0,1.8700,-5.4800,1.0700,-58.6250,-196.8750,70.1250
1721017601.17,3,1,3,0,2.0200,-5.5100,1.1100,-91.8125,-217.1875,82.2500
1721017601.18,3,1,3,0,2.3200,-5.9300,0.9700,-121.1250,-232.0000,92.0625
1721017601.19,3,1,3,0,2.4900,-5.7700,1.0600,-143.5625,-248.5625,97.0625
1721017601.20,3,1,3,0,2.2700,-5.5400,1.0800,-159.5625,-260.3750,95.1875
1721017601.21,3,1,3,0,1.8000,-5.0400,1.2500,-168.1875,-272.6875,87.7500
1721017601.22,3,1,3,0,0.4200,-4.1800,0.8300,-172.5000,-282.5625,75.5000
1721017601.23,3,1,3,0,-0.4900,-3.6700,0.7100,-170.5000,-275.6875,64.5625
1721017601.24,3,1,3,0,-1.1800,-3.2500,0.1800,-168.3125,-262.3125,57.3750
1721017601.25,3,1,3,0,-2.3700,-3.3000,-1.7300,-167.3750,-244.0625,47.5000
1721017601.26,3,1,3,0,-3.1300,-3.1900,-2.0200,-168.1875,-204.3750,39.0000
1721017601.27,3,1,3,0,-3.5400,-3.1700,-2.0100,-175.3750,-150.1875,28.6250
1721017601.28,3,1,3,0,-3.6300,-2.6400,-1.5600,-186.7500,-99.8750,21.3750
1721017601.29,3,1,3,0,-3.8300,-1.9000,-0.2900,-202.7500,-67.6875,18.0000
1721017601.30,3,1,3,0,-3.7800,-1.9800,0.3100,-218.8125,-63.0625,22.6875
1721017601.31,3,1,3,0,-3.8300,-2.2000,0.8100,-232.3125,-72.3750,34.1250
1721017601.32,3,1,3,0,-3.9800,-2.2700,1.3800,-244.9375,-84.3750,45.5000
1721017601.33,3,1,3,0,-4.0800,-2.4900,1.7600,-255.6875,-90.8750,60.4375
1721017601.34,3,1,3,0,-3.4800,-2.5600,1.7900,-260.6875,-94.6875,70.8125
1721017601.35,3,1,3,0,-3.0900,-2.8300,2.0300,-261.0625,-86.2500,71.6250
1721017601.36,3,1,3,0,-2.9500,-3.8100,2.4500,-259.5625,-72.2500,61.7500
1721017601.37,3,1,3,0,-3.4800,-3.7900,3.4300,-254.8750,-46.3750,43.3125
1721017601.38,3,1,3,0,-4.1400,-3.5200,4.5700,-247.8125,-19.3750,32.3125
1721017601.39,3,1,3,0,-4.5200,-3.4700,5.4200,-243.6875,-5.1875,28.5625
1721017601.40,3,1,3,0,-5.0500,-3.1100,6.1100,-238.0000,-5.5625,33.6875
1721017601.41,3,1,3,0,-5.4400,-3.1100,5.9500,-235.4375,-21.0000,46.1875
1721017601.42,3,1,3,0,-6.0400,-2.8500,5.7300,-238.3750,-30.0625,60.1875
1721017601.43,3,1,3,0,-6.8000,-1.6700,5.5400,-249.5000,-34.4375,72.6875
1721017601.44,3,1,3,0,-6.6700,-1.4900,5.6500,-259.0000,-27.5625,81.0625
1721017601.45,3,1,3,0,-6.6900,-1.3900,5.8200,-255.8125,-2.3125,77.5625
1721017601.46,3,1,3,0,-6.6700,-1.0000,6.3900,-239.9375,33.4375,61.6250
1721017601.47,3,1,3,0,-6.6600,-0.2400,7.5200,-215.8750,68.3125,40.7500
1721017601.48,3,1,3,0,-6.9500,0.2500,7.9100,-185.7500,101.8125,22.1250
1721017601.49,3,1,3,0,-7.1700,1.0500,8.0500,-156.6250,125.1875,7.8125
1721017601.50,3,1,3,0,-7.3900,1.7800,7.8900,-132.1250,136.0000,-2.8750
1721017601.51,3,1,3,0,-7.9800,3.3800,7.5600,-112.0625,139.8750,-0.1250
1721017601.52,3,1,3,0,-8.1100,3.9500,7.1900,-98.0625,133.1875,10.5000
1721017601.53,3,1,3,0,-8.2400,4.3500,6.9500,-90.6875,118.3125,25.6875
1721017601.54,3,1,3,0,-8.4900,4.2300,7.2600,-88.1250,99.6875,43.7500
1721017601.55,3,1,3,0,-8.3200,4.0000,7.5700,-86.5000,69.6250,64.4375
1721017601.56,3,1,3,0,-8.0700,3.2400,7.7400,-84.0625,43.8125,80.4375
1721017601.57,3,1,3,0,-7.7100,2.6600,7.7700,-76.2500,29.5625,96.1875
1721017601.58,3,1,3,0,-7.1700,2.3900,7.4700,-64.2500,24.6250,106.2500
1721017601.59,3,1,3,0,-6.6500,2.6000,7.0200,-54.6875,32.0625,112.4375
1721017601.60,3,1,3,0,-6.0500,3.0600,6.6200,-54.9375,36.8750,124.7500
1721017601.61,3,1,3,0,-5.9000,3.8900,7.5100,-66.3750,33.8750,145.2500
1721017601.62,3,1,3,0,-5.8800,3.7800,8.3100,-74.6875,15.6875,168.1875
1721017601.63,3,1,3,0,-5.2000,2.7700,9.1500,-76.3125,-19.3125,187.4375
1721017601.64,3,1,3,0,-4.4400,1.8100,10.0100,-58.1875,-49.6250,200.5000
1721017601.65,3,1,3,0,-3.1900,-1.1200,10.3100,-21.4375,-72.1250,193.3125
1721017601.66,3,1,3,0,-1.1400,-1.2800,8.5500,22.5000,-110.6250,170.8125
1721017601.67,3,1,3,0,0.6300,-0.8200,7.1800,60.6250,-131.8125,133.1250
1721017601.68,3,1,3,0,1.0900,-0.4700,5.7600,93.1250,-68.6875,101.1875
1721017601.69,3,1,3,0,1.4400,-0.2200,6.0200,118.9375,-3.7500,75.0000
1721017601.70,3,1,3,0,0.9500,0.3200,6.3000,147.0000,50.6875,36.3125
1721017601.71,3,1,3,0,0.9300,0.2900,6.7900,169.9375,82.2500,-5.1875
1721017601.72,3,1,3,0,0.1900,-0.0100,7.0800,206.9375,105.5000,-28.1875
1721017601.73,3,1,3,0,1.0100,-0.3100,5.6400,241.1875,123.3750,-48.2500
1721017601.74,3,1,3,0,1.6500,-0.2600,4.0300,278.1875,169.5625,-70.7500
1721017601.75,3,1,3,0,1.4600,0.1100,2.7100,303.3750,248.0000,-97.9375
1721017601.76,3,1,3,0,-0.5700,2.2400,2.5600,311.1250,326.0000,-128.2500
1721017601.77,3,1,3,0,-1.4800,2.9600,2.6200,296.1875,388.0000,-143.7500
1721017601.78,3,1,3,0,-2.6400,3.8500,3.0800,278.1250,424.5625,-135.1875
1721017601.79,3,1,3,0,-2.7100,3.9300,5.1600,259.3750,437.5625,-107.4375
1721017601.80,3,1,3,0,-0.4700,3.0500,5.9500,241.9375,381.4375,-42.2500
1721017601.81,3,1,3,0,2.9900,1.7600,6.5800,222.4375,258.0000,35.7500
1721017601.82,3,1,3,0,6.3600,-0.2100,6.3800,209.4375,140.4375,84.8125
1721017601.83,3,1,3,0,8.4000,-2.3700,3.4700,211.8750,77.4375,87.0625
1721017601.84,3,1,3,0,6.4300,-2.5500,2.3400,217.7500,41.6875,37.4375
1721017601.85,3,1,3,0,4.4400,-2.2200,1.7000,225.9375,44.1875,-24.0000
1721017601.86,3,1,3,0,2.2700,-1.3700,2.0900,232.5000,114.2500,-73.0625
1721017601.87,3,1,3,0,2.3600,-0.7900,3.6900,235.4375,200.6250,-104.5000
1721017601.88,3,1,3,0,4.8500,-0.3800,6.2500,218.8125,235.6250,-98.1250
1721017601.89,3,1,3,0,8.1900,-0.2400,7.7900,188.4375,181.2500,-52.9375
1721017601.90,3,1,3,0,11.8400,-0.7900,8.1700,159.6875,70.7500,-13.3750
1721017601.91,3,1,3,0,10.5600,-0.6500,7.0800,146.3125,-22.3125,3.5625
1721017601.92,3,1,3,0,9.2400,-0.4900,5.6800,144.0000,-98.8125,6.5000
1721017601.93,3,1,3,0,7.0900,-1.9300,3.1300,150.1250,-145.3750,-5.4375
1721017601.94,3,1,3,0,7.0800,-3.2100,3.1600,173.2500,-135.5000,-36.8750
1721017601.95,3,1,3,0,8.3700,-3.7500,3.0300,188.9375,-133.4375,-71.0000
1721017601.96,3,1,3,0,8.4800,-4.4000,2.4600,196.7500,-148.2500,-113.1250
1721017601.97,3,1,3,0,5.9700,-3.0900,0.5700,198.4375,-162.2500,-143.6250
1721017601.98,3,1,3,0,4.4700,-2.2100,-0.5300,185.9375,-168.1875,-141.2500
1721017601.99,3,1,3,0,3.0400,-1.9000,-0.8900,155.5000,-154.8125,-108.8750
1721017602.00,3,1,3,0,2.9800,-2.1800,-1.0600,119.8750,-141.0000,-62.6875
1721017602.01,3,1,3,0,3.3800,-2.7100,-1.5700,97.5000,-164.6250,-33.2500
1721017602.02,3,1,3,0,3.2600,-3.1400,-2.2300,83.0625,-208.0000,-39.6250
1721017602.03,3,1,3,0,2.7000,-3.5200,-2.4800,70.3750,-206.3750,-70.3750
1721017602.04,3,1,3,0,1.3300,-3.0900,-2.0000,61.6875,-161.5000,-104.6250
1721017602.05,3,1,3,0,1.2200,-2.2200,-1.3500,60.7500,-115.9375,-114.6875
1721017602.06,3,1,3,0,1.1000,-1.1800,-0.8500,51.9375,-107.1875,-100.3125
1721017602.07,3,1,3,0,-0.1100,-0.7000,-0.7300,42.9375,-137.1250,-52.0000
1721017602.08,3,1,3,0,-1.1000,-0.7300,-1.5000,28.3125,-173.8750,15.4375
1721017602.09,3,1,3,0,-1.0900,-1.1600,-1.7400,13.0625,-195.6250,82.4375
1721017602.10,3,1,3,0,-0.8600,-1.8800,-1.9600,3.8750,-198.0000,130.2500
1721017602.11,3,1,3,0,0.7700,-3.8100,-2.4200,8.8125,-190.9375,129.3750
1721017602.12,3,1,3,0,0.7600,-3.7800,-1.9500,16.0000,-177.0625,97.6250
1721017602.13,3,1,3,0,0.2200,-3.4700,-1.8300,19.7500,-159.8750,53.6250
1721017602.14,3,1,3,0,-0.3900,-2.9800,-1.5000,20.8750,-130.5625,6.5000
1721017602.15,3,1,3,0,-2.2800,-1.0200,-0.2700,24.3750,-91.3125,-25.1875
1721017602.16,3,1,3,0,-2.7700,-0.5300,0.6300,32.0000,-50.7500,-36.6875
1721017602.17,3,1,3,0,-2.4600,0.0500,1.4200,38.4375,-19.8125,-20.2500
1721017602.18,3,1,3,0,-1.9300,0.4200,2.0600,42.6250,-28.0625,7.6875
1721017602.19,3,1,3,0,-1.4900,-0.7600,1.6200,54.7500,-59.8125,29.1250
1721017602.20,3,1,3,0,-1.4900,-1.3100,0.7900,77.3750,-93.5000,40.9375
1721017602.21,3,1,3,0,-1.4600,-1.8500,-0.1100,95.7500,-101.1250,40.0625
1721017602.22,3,1,3,0,-2.2400,-2.8200,-1.0000,99.6250,-80.7500,29.3125
1721017602.23,3,1,3,0,-1.8800,-3.1100,-0.8700,97.9375,-39.7500,17.8125
1721017602.24,3,1,3,0,-1.2800,-3.0700,-0.3100,84.7500,-5.8750,14.8125
1721017602.25,3,1,3,0,-0.5600,-2.5700,0.0000,61.7500,-5.0625,17.5000
1721017602.26,3,1,3,0,-0.0400,-1.8600,0.0400,47.6875,-20.8125,20.7500
1721017602.27,3,1,3,0,0.1600,-1.1200,0.2700,39.3750,-25.3125,19.4375
1721017602.28,3,1,3,0,0.4400,-0.7000,0.5500,33.7500,-20.0625,17.0625
1721017602.29,3,1,3,0,0.4500,-0.2300,0.7900,36.8125,-15.2500,10.0000
1721017602.30,3,1,3,0,0.2200,0.0000,0.6100,48.7500,-19.9375,-4.0625
1721017602.31,3,1,3,0,-0.4700,0.0500,0.3000,61.4375,-25.0625,-14.0625
1721017602.32,3,1,3,0,-0.9000,0.0800,-0.0100,67.3125,-35.7500,-9.3750
1721017602.33,3,1,3,0,-1.2900,-0.4800,-0.5800,62.7500,-41.0000,4.1250
1721017602.34,3,1,3,0,-0.5800,-0.6100,-0.6100,50.6875,-38.6875,17.7500
1721017602.35,3,1,3,0,0.1900,-0.8400,-0.7600,38.6875,-34.2500,24.1250
1721017602.36,3,1,3,0,1.0000,-0.9900,-0.7400,31.3750,-26.5000,16.5625
1721017602.37,3,1,3,0,0.9600,-0.7100,-0.8800,32.0000,-15.8750,0.3750
1721017602.38,3,1,3,0,0.7000,-0.3700,-0.8600,36.1875,-5.0000,-17.5000
1721017602.39,3,1,3,0,0.3700,-0.3100,-0.6400,36.5000,-2.6250,-32.0000
1721017602.40,3,1,3,0,0.1300,0.6000,0.0200,36.8750,-8.6250,-31.3125
1721017602.41,3,1,3,0,0.2600,0.9000,0.0100,33.3125,-21.8750,-18.7500
1721017602.42,3,1,3,0,0.4200,0.7200,-0.0400,31.1250,-43.4375,-8.0625
1721017602.43,3,1,3,0,0.3400,0.6300,-0.2700,31.8125,-55.6875,-3.8750
1721017602.44,3,1,3,0,0.3400,0.4700,-0.5100,33.6875,-52.6875,-3.0000
1721017602.45,3,1,3,0,0.3800,0.5000,-0.5500,34.9375,-41.0000,-2.3750
1721017602.46,3,1,3,0,0.1100,0.4300,-0.5100,34.3125,-35.1875,-4.0625
1721017602.47,3,1,3,0,0.0700,0.0700,0.0400,30.3750,-32.5625,-2.0000
1721017602.48,3,1,3,0,0.3200,0.0900,0.1700,22.8125,-35.3125,10.8125
1721017602.49,3,1,3,0,0.3000,0.1200,0.2500,17.9375,-43.8125,20.9375
1721017602.50,3,1,3,0,0.1600,-0.0400,0.2200,16.6875,-49.2500,21.8125
1721017602.51,3,1,3,0,-0.1000,-0.2100,0.1100,18.8750,-43.6875,16.8125
1721017602.52,3,1,3,0,-0.3900,-0.2100,0.2100,20.7500,-36.4375,9.0000
1721017602.53,3,1,3,0,-0.8200,-0.2400,0.3300,22.8125,-34.7500,2.4375
1721017602.54,3,1,3,0,-1.1300,-0.2700,0.0000,25.0000,-41.8125,1.3750
1721017602.55,3,1,3,0,-1.2300,-0.2100,-0.1200,25.9375,-50.6250,5.4375
1721017602.56,3,1,3,0,-1.3300,-0.1600,-0.1000,23.7500,-48.1875,12.0625
1721017602.57,3,1,3,0,-1.3800,-0.1800,0.0900,17.5000,-47.1875,19.6875
1721017602.58,3,1,3,0,-1.0700,-0.4100,0.0700,15.0625,-49.3750,24.7500
1721017602.59,3,1,3,0,-0.7300,-0.4700,0.0600,15.6250,-49.3125,27.9375
1721017602.60,3,1,3,0,-0.5000,-0.6700,0.0300,15.1875,-43.9375,22.5625
1721017602.61,3,1,3,0,-0.9400,-0.7100,0.1500,14.6250,-37.8125,9.6875
1721017602.62,3,1,3,0,-1.2400,-0.5500,0.0900,16.5000,-39.3125,-3.1875
1721017602.63,3,1,3,0,-1.7600,-0.1900,0.2500,17.5000,-39.2500,-11.1875
1721017602.64,3,1,3,0,-2.0600,0.0000,0.2500,15.6875,-43.4375,-10.0625
1721017602.65,3,1,3,0,-2.3800,0.1000,0.0200,12.8750,-46.4375,-4.8125
1721017602.66,3,1,3,0,-2.4200,0.0700,0.0900,10.8750,-42.7500,0.6250
1721017602.67,3,1,3,0,-2.2800,0.0200,0.1700,9.4375,-36.3125,5.5625
1721017602.68,3,1,3,0,-2.1500,-0.0800,0.2700,8.0625,-26.9375,7.5000
1721017602.69,3,1,3,0,-2.0100,-0.1500,0.2200,9.6875,-25.3125,8.6250
1721017602.70,3,1,3,0,-2.1400,-0.1100,0.1200,12.5000,-25.8750,8.8125
1721017602.71,3,1,3,0,-1.6100,0.2300,0.8500,10.6875,-22.9375,8.2500
1721017602.72,3,1,3,0,-1.3300,0.1800,0.8900,6.0625,-20.3125,10.2500
1721017602.73,3,1,3,0,-1.0700,0.2600,0.8600,2.1875,-21.3750,14.3750
1721017602.74,3,1,3,0,-0.9800,0.1400,0.8800,-1.8750,-22.5000,15.0000
1721017602.75,3,1,3,0,-0.7900,0.0500,0.7300,-5.3750,-23.9375,15.9375
1721017602.76,3,1,3,0,-0.1800,0.0500,0.7500,-6.9375,-25.7500,15.0625
1721017602.77,3,1,3,0,0.0300,0.0900,0.8900,-9.2500,-21.7500,9.8750
1721017602.78,3,1,3,0,0.1000,0.1500,1.0000,-10.6875,-18.6875,5.1875
1721017602.79,3,1,3,0,-0.0300,0.5200,1.0700,-9.2500,-20.8750,0.4375
1721017602.80,3,1,3,0,-0.0900,0.5600,1.0300,-8.0000,-24.0000,-2.4375
1721017602.81,3,1,3,0,-0.1100,0.5800,1.0100,-6.7500,-22.1250,-2.6250
1721017602.82,3,1,3,0,-0.0400,0.6200,1.0100,-5.3125,-18.2500,-2.5000
1721017602.83,3,1,3,0,-0.2500,0.4700,0.9200,-4.4375,-16.2500,-4.6875
1721017602.84,3,1,3,0,-0.3500,0.4700,0.8400,-2.7500,-14.6875,-6.6875
1721017602.85,3,1,3,0,-0.2800,0.4600,0.8000,-1.3125,-11.3750,-5.6875
1721017602.86,3,1,3,0,-0.1800,0.5200,0.8900,-2.8750,-5.8750,-1.8750
1721017602.87,3,1,3,0,0.3000,0.4200,1.0600,-4.1250,-4.5000,2.7500
1721017602.88,3,1,3,0,0.4400,0.3800,1.0700,-2.7500,-4.9375,4.4375
1721017602.89,3,1,3,0,0.4700,0.2800,1.0700,1.3750,-6.2500,4.1875
1721017602.90,3,1,3,0,0.4900,0.1000,0.8700,5.6250,-7.5625,2.5625
1721017602.91,3,1,3,0,0.3800,0.0300,0.8200,7.1875,-8.7500,-0.3125
1721017602.92,3,1,3,0,0.2100,-0.0400,0.7500,6.2500,-9.6250,-2.9375
1721017602.93,3,1,3,0,0.0300,0.0000,0.7900,5.0625,-12.0625,-3.6875
1721017602.94,3,1,3,0,-0.3200,-0.0400,0.6800,3.7500,-14.9375,-2.7500
1721017602.95,3,1,3,0,-0.3900,-0.0600,0.7100,2.3125,-17.0000,-1.0625
1721017602.96,3,1,3,0,-0.4600,-0.0500,0.7600,0.0000,-14.6250,1.6250
1721017602.97,3,1,3,0,0.0500,-0.0600,0.9500,-1.0000,-10.1250,7.3750
1721017602.98,3,1,3,2,0.2000,-0.0900,1.0200,-3.9375,-9.4375,12.8750
1721017602.99,3,1,3,2,0.3500,-0.1700,0.9600,-4.8125,-14.6875,17.6250
1721017603.00,3,1,3,2,0.4200,-0.1400,0.8700,-3.0625,-15.5000,16.1250
1721017603.01,3,1,3,2,0.1000,-0.1100,0.8100,-1.3125,-11.3750,11.8125
1721017603.02,3,1,3,2,-0.0400,-0.0300,0.8100,0.9375,-7.0000,8.8125
1721017603.03,3,1,3,3,-0.2000,0.0900,0.8000,2.4375,-3.8750,6.5625
1721017603.04,3,1,3,3,-0.3700,0.0800,0.8500,1.3125,-1.2500,5.7500
1721017603.05,3,1,3,3,-0.2100,0.0400,0.8600,-0.8750,0.0000,7.8750
1721017603.06,3,1,3,3,-0.0300,-0.0300,0.8600,-2.6250,-3.0625,11.1875
1721017603.07,3,1,3,3,0.1300,-0.0800,0.7600,-3.5000,-9.4375,11.7500
1721017603.08,3,1,3,3,0.1000,-0.1800,0.5800,-3.5625,-10.9375,8.0625
1721017603.09,3,1,3,3,0.1100,-0.0800,0.5200,-3.3750,-7.6250,5.6875
1721017603.10,3,1,3,3,0.0800,-0.0100,0.6100,-4.8125,-3.8125,3.8125
1721017603.11,3,1,3,3,0.0000,0.0100,0.6800,-5.6250,-3.5625,1.5625
1721017603.12,3,1,3,3,-0.1400,0.3100,0.6500,-5.3750,-3.8750,1.0000
1721017603.13,3,1,3,3,-0.2100,0.2900,0.6300,-5.2500,-3.9375,0.2500
1721017603.14,3,1,3,3,-0.3300,0.3900,0.6300,-4.6875,-2.0000,-1.1875
1721017603.15,3,1,3,3,-0.4600,0.4100,0.6000,-4.2500,0.0625,-0.3125
1721017603.16,3,1,3,3,-0.3900,0.4100,0.6200,-3.7500,0.0000,2.2500
1721017603.17,3,1,3,3,-0.1900,0.3700,0.5800,-3.8750,-2.3750,6.5625
1721017603.18,3,1,3,3,-0.0100,0.3300,0.6300,-5.1875,-4.2500,11.7500
1721017603.19,3,1,3,3,0.5200,0.3800,0.8500,-6.8750,-4.0000,14.1250
1721017603.20,3,1,3,3,0.7400,0.4900,1.0500,-7.1250,-8.5000,15.0625
1721017603.21,3,1,3,3,0.8800,0.4800,0.9700,-6.6875,-24.0000,16.1250
1721017603.22,3,1,3,3,0.2800,0.3400,0.4800,-3.7500,-35.8125,10.1875
1721017603.23,3,1,3,3,0.1500,0.4600,0.4400,-1.0000,-30.5625,2.2500
1721017603.24,3,1,3,3,0.0500,0.5800,0.4300,1.0000,-18.0625,0.2500
1721017603.25,3,1,3,3,-0.0600,0.5600,0.4300,0.5000,-6.0000,-3.2500
1721017603.26,3,1,3,3,-0.1100,0.4500,0.3300,0.7500,1.6875,-5.5625
1721017603.27,3,1,3,3,-0.0600,0.4500,0.3000,-0.8125,6.6875,-7.2500
1721017603.28,3,1,3,3,0.0200,0.4400,0.3600,-5.0625,12.8750,-4.8750
1721017603.29,3,1,3,3,0.5200,0.4200,0.6000,-8.5000,18.0625,-0.5625
1721017603.30,3,1,3,3,0.6700,0.4200,0.5000,-8.4375,18.2500,1.2500
1721017603.31,3,1,3,3,0.5600,0.4500,0.4600,-6.8125,16.1250,-1.8125
1721017603.32,3,1,3,3,0.4300,0.4800,0.3300,-4.8125,15.1250,-5.6250
1721017603.33,3,1,3,3,0.5700,0.3000,-0.1800,-2.8125,18.2500,-9.2500
1721017603.34,3,1,3,3,0.6700,0.1200,-0.6200,-1.7500,24.5625,-16.1875
1721017603.35,3,1,3,3,0.7400,0.1000,-1.1500,-0.7500,33.3125,-27.4375
1721017603.36,3,1,3,3,0.4900,0.1100,-1.8300,-0.1250,45.2500,-41.1875
1721017603.37,3,1,3,3,-0.1700,0.3200,-2.4700,-4.5000,57.5625,-53.8750
1721017603.38,3,1,3,3,-0.6900,0.2500,-2.3200,-13.6875,81.5625,-59.4375
1721017603.39,3,1,3,3,-1.1700,0.2100,-2.0700,-25.4375,121.3125,-62.8125
1721017603.40,3,1,3,3,-2.0400,0.5400,-1.3900,-30.4375,167.5625,-65.1875
1721017603.41,3,1,3,3,-2.7000,0.6300,-1.3500,-30.6875,210.5000,-66.5000
1721017603.42,3,1,3,3,-3.1400,0.7400,-1.3500,-25.5625,249.6250,-69.8125
1721017603.43,3,1,3,3,-3.5100,0.8400,-1.3600,-20.2500,282.6875,-76.7500
1721017603.44,3,1,3,3,-3.8100,1.1600,-0.9100,-14.2500,314.7500,-84.0000
1721017603.45,3,1,3,3,-4.0100,1.4600,-0.9100,-5.8750,352.0000,-84.5000
1721017603.46,3,1,3,3,-4.3100,1.5600,-1.1700,-0.0625,392.1250,-82.1250
1721017603.47,3,1,3,3,-4.1100,1.4400,-0.3500,3.0625,420.5000,-82.7500
1721017603.48,3,1,3,3,-4.3900,1.7000,-0.6700,15.7500,446.4375,-79.7500
1721017603.49,3,1,3,3,-4.8800,1.6400,-0.9400,20.0000,477.6250,-79.4375
1721017603.50,3,1,3,3,-5.4200,1.9800,-0.8100,17.6250,473.6250,-70.6875
1721017603.51,3,1,3,3,-5.9800,2.8000,-0.3000,15.4375,474.1250,-56.8750
1721017603.52,3,1,3,3,-6.3000,2.9700,-0.1400,12.0625,460.8750,-40.4375
1721017603.53,3,1,3,3,-6.5700,2.8700,-0.6400,10.2500,451.3125,-30.8750
1721017603.54,3,1,3,3,-7.4000,2.5700,-0.4900,7.5000,448.0000,-26.8750
1721017603.55,3,1,3,3,-7.2300,2.5200,-0.7600,10.1875,435.5625,-18.5000
1721017603.56,3,1,3,3,-7.1500,2.4500,-0.9700,23.8750,421.1875,-17.0000
1721017603.57,3,1,3,3,-7.2300,2.4500,-1.0800,39.1250,415.7500,-19.5625
1721017603.58,3,1,3,3,-7.6200,2.8200,-0.7500,56.1875,408.2500,-20.7500
1721017603.59,3,1,3,3,-7.5200,3.0100,-0.7500,73.2500,389.5000,-18.5625
1721017603.60,3,1,3,3,-7.2400,3.1600,-0.7100,86.2500,352.1875,-11.3125
1721017603.61,3,1,3,3,-6.8700,3.0500,-0.5200,91.8125,316.3750,0.1875
1721017603.62,3,1,3,3,-6.6600,2.3100,-0.3400,93.6250,293.6875,14.0625
1721017603.63,3,1,3,2,-6.1500,1.5800,-0.4400,95.0000,277.3750,25.4375
1721017603.64,3,1,3,2,-5.6500,0.6900,-0.6700,91.6250,272.8750,36.5000
1721017603.65,3,1,3,2,-5.1800,-1.1300,-1.1400,84.6875,266.4375,40.0000
1721017603.66,3,1,3,2,-4.7800,-1.6500,-1.1500,80.2500,258.7500,31.0625
1721017603.67,3,1,3,2,-4.6300,-1.7700,-1.0900,78.9375,270.8125,14.0625
1721017603.68,3,1,3,0,-4.5600,-1.5200,-0.8300,72.5625,288.7500,-0.8125
1721017603.69,3,1,3,0,-4.4600,-0.9400,0.7100,60.5625,296.0625,-10.6875
1721017603.70,3,1,3,0,-3.8600,-0.8200,1.5200,47.9375,288.9375,-12.4375
1721017603.71,3,1,3,0,-3.5400,-0.8300,2.2000,39.1875,286.5625,-7.1250
1721017603.72,3,1,3,0,-2.8300,-1.3700,3.4400,27.0000,285.3750,0.1875
1721017603.73,3,1,3,0,-1.6800,-2.1800,4.2000,10.4375,259.0000,7.9375
1721017603.74,3,1,3,0,-0.4600,-2.5800,4.9100,-7.4375,206.8125,10.4375
1721017603.75,3,1,3,0,0.5600,-2.7000,5.2500,-29.3750,152.3125,-1.8750
1721017603.76,3,1,3,0,0.3100,-1.9900,6.6400,-53.5000,108.5000,-24.5625
1721017603.77,3,1,3,0,0.4200,-1.6400,7.4600,-70.1250,75.0000,-43.6250
1721017603.78,3,1,3,0,0.6000,-0.9600,7.8700,-79.1875,51.5625,-56.0000
1721017603.79,3,1,3,0,0.4700,-0.2000,7.9800,-78.3750,35.8125,-64.5000
1721017603.80,3,1,3,0,-0.0600,0.1300,7.7000,-76.1250,21.5625,-66.4375
1721017603.81,3,1,3,0,-0.1300,0.3900,7.4500,-72.6875,3.3750,-56.1875
1721017603.82,3,1,3,0,-0.0200,0.6100,7.0700,-64.8750,-5.0625,-43.0625
1721017603.83,3,1,3,0,-0.3200,0.3600,5.5600,-58.6875,0.2500,-36.1875
1721017603.84,3,1,3,0,-0.3300,0.2000,4.8600,-54.6875,3.0625,-25.6875
1721017603.85,3,1,3,0,-0.2800,-0.1200,4.4500,-53.1875,-7.1250,-15.5625
1721017603.86,3,1,3,0,0.0300,-0.6200,4.1200,-51.0625,-22.1250,-11.0000
1721017603.87,3,1,3,0,-0.0300,-0.6800,3.6700,-45.9375,-29.5625,-14.9375
1721017603.88,3,1,3,0,-0.2200,-0.3000,3.7100,-34.1875,-24.8750,-24.3125
1721017603.89,3,1,3,0,-0.2900,0.1500,3.8600,-24.7500,-14.6250,-27.5625
1721017603.90,3,1,3,0,-0.5400,0.7700,3.8200,-18.7500,-9.4375,-20.5625
1721017603.91,3,1,3,0,-0.2400,0.7300,3.8100,-13.1875,-18.6875,-7.7500
1721017603.92,3,1,3,0,-0.0200,0.5000,3.7200,-10.6250,-39.7500,4.8750
1721017603.93,3,1,3,0,0.0000,0.3900,3.3600,-7.3125,-46.5625,19.6875
1721017603.94,3,1,3,0,0.2100,-0.2100,2.3100,-1.6875,-46.4375,30.0000
1721017603.95,3,1,3,0,0.3300,-0.3800,1.7800,1.1875,-53.0000,35.1250
1721017603.96,3,1,3,0,0.0900,-0.5300,1.2300,3.0000,-53.4375,33.4375
1721017603.97,3,1,3,0,-0.1400,-0.6500,0.4600,2.8125,-46.4375,26.6875
1721017603.98,3,1,3,0,-0.1800,-0.5900,0.2500,1.6250,-37.5000,26.7500
1721017603.99,3,1,3,0,-0.3000,-0.5700,0.0900,-1.7500,-26.3750,28.6250
1721017604.00,3,1,3,0,-0.3900,-0.6000,-0.1000,-7.9375,-14.9375,29.5625
1721017604.01,3,1,3,0,-0.6000,-0.7200,-0.1300,-15.0625,-12.0000,30.8750
1721017604.02,3,1,3,0,-0.7500,-0.5600,-0.1200,-21.7500,-11.6875,29.2500
1721017604.03,3,1,3,0,-0.7800,-0.3000,0.0100,-25.4375,-12.0000,25.5625
1721017604.04,3,1,3,0,-0.7200,-0.0600,0.2300,-26.5000,-14.8750,21.8750
1721017604.05,3,1,3,0,-0.7900,0.1900,0.3900,-25.0000,-14.1875,17.5000
1721017604.06,3,1,3,0,-0.9100,0.3100,0.4200,-20.3750,-11.8750,13.3750
1721017604.07,3,1,3,0,-1.1000,0.5000,0.3800,-14.4375,-11.0000,11.3750
1721017604.08,3,1,3,0,-0.9900,0.5800,0.4400,-10.4375,-13.0625,11.3750
1721017604.09,3,1,3,0,-0.9700,0.4800,0.3300,-7.6875,-13.1250,13.1250
1721017604.10,3,1,3,0,-1.0100,0.4000,0.2200,-5.5000,-15.9375,14.8125
1721017604.11,3,1,3,0,-1.0400,0.3000,0.0600,-3.0000,-22.3750,16.0000
1721017604.12,3,1,3,0,-0.9300,0.0600,-0.0300,-1.1250,-29.5625,16.6875
1721017604.13,3,1,3,0,-0.8100,0.0100,0.0300,-1.3750,-28.8750,15.5625
1721017604.14,3,1,3,0,-0.7500,0.0200,0.1200,-0.6875,-21.5625,10.6875
