timestamp,calib_mag,calib_accel,calib_gyro,calib_sys,lacc_x,lacc_y,lacc_z,gyro_x,gyro_y,gyro_z,quat_w,quat_x,quat_y,quat_z,label
58.26,3,0,0,0,1.1100,0.9800,0.4000,-29.8750,-26.8750,-29.3750,0.41662597656250,-0.13049316406250,0.66375732421875,0.60736083984375,moving
58.27,3,0,0,0,0.7000,1.1900,0.1200,-41.0000,-24.1250,-29.8125,0.41912841796875,-0.13244628906250,0.66033935546875,0.60888671875000,moving
58.28,3,0,0,0,0.1200,1.3500,-0.2500,-50.3125,-17.8125,-28.3125,0.42108154296875,-0.13494873046875,0.65661621093750,0.61096191406250,moving
58.29,3,0,0,0,-0.4000,1.5900,-0.6300,-56.0625,-11.7500,-25.0625,0.42242431640625,-0.13775634765625,0.65289306640625,0.61340332031250,moving
58.30,3,0,0,0,-1.6300,2.4000,-1.3400,-58.7500,-9.8125,-21.6250,0.42340087890625,-0.14062500000000,0.64910888671875,0.61608886718750,moving
58.31,3,0,0,0,-2.4300,3.0500,-1.7300,-60.7500,-12.8750,-18.0625,0.42437744140625,-0.14318847656250,0.64514160156250,0.61901855468750,moving
58.32,3,0,0,0,-3.3700,3.5100,-2.1600,-62.3125,-18.0625,-14.5625,0.42541503906250,-0.14532470703125,0.64086914062500,0.62225341796875,moving
58.33,3,0,0,0,-4.0200,3.7400,-1.4600,-62.5000,-18.6875,-11.2500,0.42626953125000,-0.14721679687500,0.63665771484375,0.62554931640625,moving
58.34,3,0,0,0,-3.5000,2.7500,-2.9100,-61.0000,9.6250,-4.8750,0.42517089843750,-0.15026855468750,0.63360595703125,0.62866210937500,moving
58.35,3,0,0,0,-2.5300,1.2300,-3.8200,-43.8750,23.7500,5.5625,0.42297363281250,-0.15289306640625,0.63214111328125,0.63098144531250,moving
58.36,3,0,0,0,-1.1700,-0.0700,-3.7100,-5.1250,6.0000,13.3125,0.42181396484375,-0.15264892578125,0.63226318359375,0.63165283203125,moving
58.37,3,0,0,0,-0.2100,-1.1300,-3.3500,30.4375,-25.3750,16.0000,0.42272949218750,-0.14923095703125,0.63317871093750,0.63092041015625,moving
58.38,3,0,0,0,0.7500,-1.3200,-3.0600,49.1875,-36.6250,18.4375,0.42437744140625,-0.14440917968750,0.63476562500000,0.62939453125000,moving
58.39,3,0,0,0,0.7200,-1.7800,-3.1400,62.0000,-30.6875,14.3125,0.42608642578125,-0.13958740234375,0.63720703125000,0.62683105468750,moving
58.40,3,0,0,0,0.7400,-2.3100,-2.9900,67.4375,-23.0625,8.1250,0.42767333984375,-0.13537597656250,0.64013671875000,0.62365722656250,moving
58.41,3,0,0,0,1.6300,-3.2700,-2.2300,62.6250,-14.5000,3.8125,0.42901611328125,-0.13201904296875,0.64306640625000,0.62048339843750,moving
58.42,3,0,0,0,2.1100,-3.5200,-1.7800,51.1250,-4.1250,2.3750,0.42968750000000,-0.12976074218750,0.64569091796875,0.61773681640625,moving
58.43,3,0,0,0,2.7900,-3.5400,-1.3500,36.1875,9.8125,4.8125,0.42926025390625,-0.12866210937500,0.64807128906250,0.61572265625000,moving
58.44,3,0,0,0,3.6900,-3.9000,-1.0500,22.0000,24.5000,9.5000,0.42761230468750,-0.12860107421875,0.65032958984375,0.61456298828125,moving
58.45,3,0,0,0,4.6500,-3.9300,-0.8600,13.8125,39.0625,13.0625,0.42486572265625,-0.12939453125000,0.65264892578125,0.61383056640625,moving
58.46,3,0,0,0,5.2600,-3.9900,-0.6600,6.1875,50.5000,16.9375,0.42114257812500,-0.13092041015625,0.65509033203125,0.61352539062500,moving
58.47,3,0,0,0,5.4300,-4.1700,-0.3700,3.0625,58.1875,22.9375,0.41656494140625,-0.13262939453125,0.65765380859375,0.61352539062500,moving
58.48,3,0,0,0,6.0500,-4.1700,-0.2300,8.8750,63.0625,28.5625,0.41156005859375,-0.13403320312500,0.66070556640625,0.61328125000000,moving
58.49,3,0,0,0,6.0500,-4.1700,-0.2300,8.8750,63.0625,28.5625,0.41156005859375,-0.13403320312500,0.66070556640625,0.61328125000000,moving
58.49,3,0,0,0,4.8900,-3.0400,0.8600,26.8750,63.8750,31.3125,0.40649414062500,-0.13464355468750,0.66479492187500,0.61212158203125,moving
58.50,3,0,0,0,3.8800,-2.2600,1.9800,62.5625,56.1250,31.6250,0.40222167968750,-0.13360595703125,0.67053222656250,0.60888671875000,moving
58.51,3,0,0,0,2.2200,-1.8600,3.6300,127.6250,27.9375,31.4375,0.40039062500000,-0.12872314453125,0.67858886718750,0.60217285156250,moving
58.52,3,0,0,0,0.5900,-1.1600,4.7900,204.5625,-39.9375,29.3750,0.40344238281250,-0.11773681640625,0.68817138671875,0.59143066406250,moving
58.53,3,0,0,0,-2.4700,-1.4800,3.6100,218.7500,-98.8125,15.0625,0.41070556640625,-0.10400390625000,0.69598388671875,0.57971191406250,moving
58.54,3,0,0,0,-5.5500,0.5600,4.7000,96.5000,-100.9375,-13.2500,0.41839599609375,-0.09625244140625,0.69708251953125,0.57427978515625,moving
58.55,3,0,0,0,-9.0300,2.1000,2.5100,-48.0000,-36.9375,-34.8125,0.42193603515625,-0.09826660156250,0.69299316406250,0.57623291015625,moving
58.56,3,0,0,0,-13.1100,7.2000,1.8500,-81.0000,-28.5000,-45.2500,0.42523193359375,-0.10253906250000,0.68743896484375,0.57971191406250,moving
58.57,3,0,0,0,-22.4000,13.0800,2.1300,-78.2500,-117.8125,-81.1875,0.43566894531250,-0.10430908203125,0.67834472656250,0.58239746093750,moving
58.58,3,0,0,0,-16.3400,16.4700,5.7000,-96.0625,-165.6250,-32.9375,0.44622802734375,-0.10150146484375,0.66674804687500,0.58825683593750,moving
58.59,3,0,0,0,-7.8000,11.5500,4.3900,-127.0625,-0.8125,59.0000,0.44207763671875,-0.10296630859375,0.66064453125000,0.59790039062500,moving
58.60,3,0,0,0,2.9900,2.6700,-0.2800,-70.2500,116.0625,71.5625,0.43103027343750,-0.10760498046875,0.66204833984375,0.60357666015625,moving
58.61,3,0,0,0,1.9600,-1.8600,-1.2600,14.5000,50.1250,22.8125,0.42706298828125,-0.10839843750000,0.66491699218750,0.60314941406250,moving
58.62,3,0,0,0,3.5900,-2.9300,-0.1700,20.5000,10.6250,-2.9375,0.42681884765625,-0.10833740234375,0.66632080078125,0.60174560546875,moving
58.63,3,0,0,0,3.9100,-5.0700,-0.8500,-21.0000,19.6875,-7.7500,0.42590332031250,-0.11065673828125,0.66589355468750,0.60247802734375,moving
58.64,3,0,0,0,4.8900,-6.2300,-1.6300,-47.5625,6.6250,-5.8750,0.42535400390625,-0.11309814453125,0.66351318359375,0.60498046875000,moving
58.65,3,0,0,0,5.3700,-7.3000,-1.7400,-69.5000,-20.6250,-9.5000,0.42633056640625,-0.11511230468750,0.65899658203125,0.60882568359375,moving
58.66,3,0,0,0,6.0200,-7.3400,-1.1200,-89.5000,-33.4375,-10.2500,0.42791748046875,-0.11724853515625,0.65283203125000,0.61395263671875,moving
58.67,3,0,0,0,6.4200,-7.1800,-1.4400,-100.0000,-8.5000,-3.8750,0.42761230468750,-0.12078857421875,0.64709472656250,0.61956787109375,moving
58.68,3,0,0,0,7.2600,-6.1800,-2.5700,-98.7500,31.8125,8.9375,0.42425537109375,-0.12567138671875,0.64300537109375,0.62512207031250,moving
58.69,3,0,0,0,7.4000,-6.0800,-3.2100,-79.3750,72.3125,18.3750,0.41833496093750,-0.13153076171875,0.64154052734375,0.62939453125000,moving
58.70,3,0,0,0,7.4000,-5.2800,-3.7600,-54.5625,107.1875,18.9375,0.41064453125000,-0.13830566406250,0.64257812500000,0.63189697265625,moving
58.71,3,0,0,0,6.4700,-4.5300,-4.7200,-44.8750,117.0000,14.4375,0.40270996093750,-0.14556884765625,0.64447021484375,0.63348388671875,moving
58.72,3,0,0,0,3.2600,-1.3800,-5.0400,-42.3750,93.3125,15.8125,0.39605712890625,-0.15130615234375,0.64556884765625,0.63519287109375,moving
58.73,3,0,0,0,1.0900,0.3300,-4.5200,-32.1250,57.2500,19.7500,0.39129638671875,-0.15447998046875,0.64599609375000,0.63696289062500,moving
58.74,3,0,0,0,-1.6200,2.5300,-3.4500,-0.6875,4.0625,19.3750,0.38995361328125,-0.15368652343750,0.64636230468750,0.63757324218750,moving
58.75,3,0,0,0,-1.6200,2.5300,-3.4500,-0.6875,4.0625,19.3750,0.38995361328125,-0.15368652343750,0.64636230468750,0.63757324218750,moving
58.75,3,0,0,0,-6.2800,5.0700,-2.7600,38.7500,-39.4375,9.3750,0.39221191406250,-0.14959716796875,0.64733886718750,0.63623046875000,moving
58.76,3,0,0,0,-15.8100,12.5200,0.3700,76.0625,-86.1250,-7.0625,0.39843750000000,-0.14263916015625,0.64849853515625,0.63275146484375,moving
58.77,3,0,0,0,-14.9300,11.9900,3.5200,117.8750,-122.0000,-11.5000,0.40734863281250,-0.13244628906250,0.65051269531250,0.62713623046875,moving
58.78,3,0,0,0,-9.0600,9.3300,4.7900,154.5625,-94.7500,4.7500,0.41424560546875,-0.12145996093750,0.65557861328125,0.61956787109375,moving
58.79,3,0,0,0,-1.8800,1.1800,3.8600,152.5625,-28.3750,9.8125,0.41687011718750,-0.11389160156250,0.66290283203125,0.61138916015625,moving
58.80,3,0,0,0,-0.3100,-0.8400,3.4100,143.4375,-29.3750,8.7500,0.41949462890625,-0.10656738281250,0.66949462890625,0.60369873046875,moving
58.81,3,0,0,0,1.4500,-0.2100,2.5600,109.3750,-27.6250,10.1250,0.42156982421875,-0.10052490234375,0.67431640625000,0.59790039062500,moving
58.82,3,0,0,0,2.7300,0.3300,1.0700,56.1250,-7.0625,9.4375,0.42199707031250,-0.09753417968750,0.67706298828125,0.59497070312500,moving
58.83,3,0,0,0,5.0600,-0.4800,-0.0600,5.0000,8.0000,7.4375,0.42120361328125,-0.09735107421875,0.67767333984375,0.59490966796875,moving
58.84,3,0,0,0,5.5300,-1.4200,-0.2200,-40.2500,13.6250,4.9375,0.41979980468750,-0.09924316406250,0.67608642578125,0.59735107421875,moving
58.85,3,0,0,0,5.7400,-2.3700,-0.4800,-70.2500,22.3750,1.5625,0.41778564453125,-0.10290527343750,0.67327880859375,0.60131835937500,moving
58.86,3,0,0,0,5.5500,-3.3300,-1.1800,-87.2500,39.4375,1.8750,0.41455078125000,-0.10803222656250,0.67010498046875,0.60614013671875,moving
58.87,3,0,0,0,5.6300,-5.0600,-1.4500,-85.0000,39.8750,2.8750,0.41125488281250,-0.11303710937500,0.66705322265625,0.61083984375000,moving
58.88,3,0,0,0,5.6800,-5.7100,-1.1600,-71.6875,30.2500,5.7500,0.40844726562500,-0.11688232421875,0.66436767578125,0.61492919921875,moving
58.89,3,0,0,0,5.6300,-5.9500,-1.1600,-57.3125,29.3750,7.6875,0.40576171875000,-0.12005615234375,0.66241455078125,0.61816406250000,moving
58.90,3,0,0,0,5.1600,-5.8100,-1.4000,-36.6875,29.3750,7.1250,0.40325927734375,-0.12249755859375,0.66156005859375,0.62023925781250,moving
58.91,3,0,0,0,3.5700,-3.7500,-1.5800,-3.5625,16.2500,8.0000,0.40185546875000,-0.12304687500000,0.66198730468750,0.62054443359375,moving
58.92,3,0,0,0,2.5700,-2.2100,-0.8900,26.7500,-4.5000,7.3750,0.40197753906250,-0.12139892578125,0.66339111328125,0.61932373046875,moving
58.93,3,0,0,0,1.2900,-0.7200,-0.2900,38.3750,-10.3750,5.3750,0.40270996093750,-0.11920166015625,0.66516113281250,0.61737060546875,moving
58.94,3,0,0,0,-3.4200,3.4600,0.0000,40.0625,-6.4375,4.7500,0.40325927734375,-0.11718750000000,0.66711425781250,0.61529541015625,moving
58.95,3,0,0,0,-7.0700,5.9900,0.5400,40.3750,-13.0625,6.0000,0.40405273437500,-0.11468505859375,0.66888427734375,0.61328125000000,moving
58.96,3,0,0,0,-9.8900,8.4500,1.3900,41.3750,-28.8125,8.3125,0.40570068359375,-0.11120605468750,0.67016601562500,0.61145019531250,moving
58.97,3,0,0,0,-10.2400,10.2200,2.2200,33.5000,-39.2500,6.4375,0.40802001953125,-0.10754394531250,0.67065429687500,0.61010742187500,moving
58.98,3,0,0,0,-6.4700,6.7700,1.5400,11.5625,-20.3125,-1.6875,0.40936279296875,-0.10614013671875,0.67053222656250,0.60955810546875,moving
58.99,3,0,0,0,-4.3400,4.4900,1.6100,-5.3125,-3.5625,-0.2500,0.40954589843750,-0.10614013671875,0.67010498046875,0.60992431640625,moving
59.00,3,0,0,0,-2.4900,2.6400,1.6900,-7.3125,-4.6875,5.1250,0.40948486328125,-0.10583496093750,0.66961669921875,0.61053466796875,moving
59.01,3,0,0,0,-2.4900,2.6400,1.6900,-7.3125,-4.6875,5.1250,0.40948486328125,-0.10583496093750,0.66961669921875,0.61053466796875,moving
59.01,3,0,0,0,-1.2200,1.7100,1.1800,-11.8125,5.8750,5.3125,0.40875244140625,-0.10626220703125,0.66925048828125,0.61138916015625,moving
59.02,3,0,0,0,0.8200,0.7700,0.1700,-17.8750,14.8750,2.7500,0.40753173828125,-0.10754394531250,0.66882324218750,0.61236572265625,moving
59.03,3,0,0,0,1.6700,0.0400,-0.0200,-24.3125,12.3125,0.0000,0.40661621093750,-0.10906982421875,0.66796875000000,0.61370849609375,moving
59.04,3,0,0,0,2.2300,-0.6800,-0.0700,-31.1250,5.1875,-2.0625,0.40612792968750,-0.11053466796875,0.66644287109375,0.61535644531250,moving
59.05,3,0,0,0,2.9100,-1.5200,-0.1200,-36.7500,2.6875,-1.8750,0.40570068359375,-0.11212158203125,0.66455078125000,0.61743164062500,moving
59.06,3,0,0,0,4.1500,-3.0100,-0.5900,-40.8750,7.0625,-1.8750,0.40496826171875,-0.11401367187500,0.66259765625000,0.61968994140625,moving
59.07,3,0,0,0,4.5600,-3.7800,-0.8900,-43.7500,11.6875,-1.8750,0.40393066406250,-0.11633300781250,0.66058349609375,0.62200927734375,moving
59.08,3,0,0,0,4.8800,-4.3900,-1.0600,-41.6875,14.4375,-1.0000,0.40277099609375,-0.11865234375000,0.65881347656250,0.62420654296875,moving
59.09,3,0,0,0,5.0200,-4.8600,-1.2500,-36.9375,15.6875,-0.4375,0.40142822265625,-0.12078857421875,0.65734863281250,0.62615966796875,moving
59.10,3,0,0,0,5.0900,-5.1300,-1.6900,-30.9375,14.8125,0.5000,0.40026855468750,-0.12268066406250,0.65618896484375,0.62780761718750,moving
59.11,3,0,0,0,5.0500,-5.2300,-1.6600,-22.1875,10.6875,2.0000,0.39929199218750,-0.12390136718750,0.65539550781250,0.62902832031250,moving
59.12,3,0,0,0,4.9100,-5.1900,-1.4500,-13.1250,9.0000,3.0000,0.39849853515625,-0.12469482421875,0.65502929687500,0.62982177734375,moving
59.13,3,0,0,0,4.6100,-4.8600,-1.0900,-1.6875,8.6875,3.9375,0.39770507812500,-0.12500000000000,0.65527343750000,0.62994384765625,moving
59.14,3,0,0,0,4.2500,-4.7600,-0.7600,11.4375,2.2500,5.0000,0.39746093750000,-0.12438964843750,0.65600585937500,0.62945556640625,moving
59.15,3,0,0,0,3.6700,-4.4900,-0.5600,23.3750,-7.5000,5.0625,0.39782714843750,-0.12292480468750,0.65710449218750,0.62835693359375,moving
59.16,3,0,0,0,2.9900,-4.0900,-0.3800,31.0625,-19.0000,3.8125,0.39904785156250,-0.12054443359375,0.65820312500000,0.62689208984375,moving
59.17,3,0,0,0,0.5900,-2.0000,-0.4200,32.2500,-28.2500,0.0000,0.40100097656250,-0.11785888671875,0.65893554687500,0.62536621093750,moving
59.18,3,0,0,0,-1.6500,0.5400,-0.3300,19.0625,-33.5625,-4.0000,0.40338134765625,-0.11560058593750,0.65881347656250,0.62445068359375,moving
59.19,3,0,0,0,-5.2300,3.8100,-0.2400,5.5625,-37.0000,-12.2500,0.40618896484375,-0.11407470703125,0.65765380859375,0.62408447265625,moving
59.20,3,0,0,0,-8.7600,7.8400,0.2000,-8.7500,-37.2500,-15.6250,0.40911865234375,-0.11328125000000,0.65570068359375,0.62438964843750,moving
59.21,3,0,0,0,-12.1500,14.8300,2.6400,-9.8125,-51.1875,-11.7500,0.41253662109375,-0.11151123046875,0.65319824218750,0.62500000000000,moving
59.22,3,0,0,0,-9.4400,14.2300,3.5300,10.2500,-44.9375,-7.3125,0.41558837890625,-0.10906982421875,0.65209960937500,0.62463378906250,moving
59.23,3,0,0,0,-6.1600,11.3600,2.5100,23.5000,7.5625,1.1250,0.41534423828125,-0.10858154296875,0.65368652343750,0.62322998046875,moving
59.24,3,0,0,0,-3.3700,7.2800,2.5300,56.1250,2.3125,11.7500,0.41510009765625,-0.10601806640625,0.65692138671875,0.62042236328125,moving
59.25,3,0,0,0,-0.8100,2.0500,2.9600,74.0000,-18.4375,17.0625,0.41589355468750,-0.10131835937500,0.66040039062500,0.61700439453125,moving
59.26,3,0,0,0,-0.6200,1.4200,2.4200,47.9375,5.0625,17.6875,0.41503906250000,-0.09881591796875,0.66326904296875,0.61480712890625,moving
59.27,3,0,0,0,-0.6200,1.4200,2.4200,47.9375,5.0625,17.6875,0.41503906250000,-0.09881591796875,0.66326904296875,0.61480712890625,moving
59.27,3,0,0,0,-0.7900,0.9600,1.7900,18.5625,20.6875,14.1875,0.41326904296875,-0.09844970703125,0.66516113281250,0.61407470703125,moving
59.28,3,0,0,0,0.0300,-1.3400,1.5100,-10.6875,8.6250,6.3750,0.41229248046875,-0.09887695312500,0.66491699218750,0.61486816406250,moving
59.29,3,0,0,0,1.0700,-2.6700,0.9800,-37.5000,-10.9375,-2.7500,0.41278076171875,-0.09979248046875,0.66247558593750,0.61706542968750,moving
59.30,3,0,0,0,2.1400,-3.7400,0.1700,-56.0625,-16.9375,-9.6875,0.41375732421875,-0.10150146484375,0.65875244140625,0.62005615234375,moving
59.31,3,0,0,0,3.1900,-4.5400,-0.7400,-64.3750,-14.4375,-14.0000,0.41479492187500,-0.10382080078125,0.65460205078125,0.62341308593750,moving
59.32,3,0,0,0,4.3900,-5.3300,-1.7200,-71.4375,-10.8125,-15.1250,0.41558837890625,-0.10668945312500,0.65020751953125,0.62701416015625,moving
59.33,3,0,0,0,4.5800,-5.1000,-1.9600,-72.5625,-4.5000,-14.6250,0.41595458984375,-0.10986328125000,0.64587402343750,0.63067626953125,moving
59.34,3,0,0,0,4.9500,-5.0300,-2.3000,-63.9375,1.0000,-15.3125,0.41613769531250,-0.11309814453125,0.64227294921875,0.63366699218750,moving
59.35,3,0,0,0,5.1300,-5.0600,-2.7000,-55.5625,11.5625,-14.5000,0.41571044921875,-0.11657714843750,0.63946533203125,0.63616943359375,moving
59.36,3,0,0,0,5.6700,-4.4100,-3.1800,-43.5000,20.7500,-11.5625,0.41473388671875,-0.11993408203125,0.63769531250000,0.63793945312500,moving
59.37,3,0,0,0,5.8000,-3.9100,-3.4100,-28.5625,27.7500,-8.3125,0.41339111328125,-0.12298583984375,0.63696289062500,0.63891601562500,moving
59.38,3,0,0,0,5.9800,-3.7300,-3.3200,-17.5625,30.5000,-4.9375,0.41174316406250,-0.12561035156250,0.63702392578125,0.63940429687500,moving
59.39,3,0,0,0,5.8200,-3.4700,-3.4700,-8.9375,29.3750,-2.8750,0.41015625000000,-0.12768554687500,0.63757324218750,0.63946533203125,moving
59.40,3,0,0,0,4.4600,-3.3000,-2.5400,1.6250,15.0000,-3.8125,0.40954589843750,-0.12866210937500,0.63818359375000,0.63909912109375,moving
59.41,3,0,0,0,3.6500,-2.9100,-2.0100,8.6875,-1.7500,-4.0625,0.40997314453125,-0.12847900390625,0.63854980468750,0.63848876953125,moving
59.42,3,0,0,0,2.4600,-2.1500,-1.6200,12.0625,-13.3125,-4.4375,0.41107177734375,-0.12756347656250,0.63873291015625,0.63781738281250,moving
59.43,3,0,0,0,0.5800,-0.7500,-1.1700,16.8750,-19.8125,-6.0625,0.41271972656250,-0.12615966796875,0.63885498046875,0.63684082031250,moving
59.44,3,0,0,0,-6.0600,4.3200,-0.5900,24.3750,-21.8125,-8.2500,0.41467285156250,-0.12451171875000,0.63934326171875,0.63543701171875,moving
59.45,3,0,0,0,-10.1000,7.5900,-0.0500,36.5000,-24.7500,-7.6875,0.41687011718750,-0.12225341796875,0.64038085937500,0.63336181640625,moving
59.46,3,0,0,0,-13.2500,11.4300,0.9800,51.0000,-35.0000,-3.1875,0.41949462890625,-0.11865234375000,0.64190673828125,0.63079833984375,moving
59.47,3,0,0,0,-10.8400,12.5900,1.9600,71.8125,-27.1875,3.0625,0.42156982421875,-0.11431884765625,0.64489746093750,0.62713623046875,moving
59.48,3,0,0,0,-6.7700,9.1800,2.8000,97.9375,-18.2500,9.2500,0.42303466796875,-0.10919189453125,0.64965820312500,0.62213134765625,moving
59.49,3,0,0,0,-4.0500,5.3000,2.9600,102.0000,-27.0000,9.5625,0.42504882812500,-0.10339355468750,0.65429687500000,0.61694335937500,moving
59.50,3,0,0,0,-2.1400,3.6400,2.3200,77.9375,-12.1875,11.5625,0.42578125000000,-0.09918212890625,0.65814208984375,0.61297607421875,moving
59.51,3,0,0,0,-1.2300,2.6500,1.2300,35.2500,7.8750,10.6250,0.42504882812500,-0.09771728515625,0.66040039062500,0.61126708984375,moving
59.52,3,0,0,0,-0.6600,1.9500,1.9900,-5.1875,6.6250,7.0625,0.42425537109375,-0.09783935546875,0.66040039062500,0.61181640625000,moving
59.53,3,0,0,0,-0.6600,1.9500,1.9900,-5.1875,6.6250,7.0625,0.42425537109375,-0.09783935546875,0.66040039062500,0.61181640625000,moving
59.53,3,0,0,0,0.2100,0.7500,2.0900,-30.9375,-1.7500,3.7500,0.42388916015625,-0.09863281250000,0.65875244140625,0.61370849609375,moving
59.54,3,0,0,0,1.1000,-0.5000,1.3000,-50.0000,-0.5000,3.4375,0.42321777343750,-0.10028076171875,0.65606689453125,0.61669921875000,moving
59.55,3,0,0,0,3.0700,-3.1000,-0.4800,-61.9375,2.4375,1.9375,0.42242431640625,-0.10260009765625,0.65289306640625,0.62030029296875,moving
59.56,3,0,0,0,4.0200,-4.8000,-0.9500,-65.5000,2.4375,0.0000,0.42169189453125,-0.10510253906250,0.64941406250000,0.62402343750000,moving
59.57,3,0,0,0,4.4200,-4.9400,-1.4900,-67.2500,10.5000,-3.0625,0.42065429687500,-0.10833740234375,0.64605712890625,0.62762451171875,moving
59.58,3,0,0,0,4.7300,-5.2100,-1.9100,-61.6875,18.8125,-5.6250,0.41931152343750,-0.11193847656250,0.64331054687500,0.63067626953125,moving
59.59,3,0,0,0,5.5500,-5.6700,-2.2800,-47.5000,24.3125,-7.2500,0.41784667968750,-0.11541748046875,0.64154052734375,0.63287353515625,moving
59.60,3,0,0,0,5.6000,-5.6900,-2.3600,-36.8750,24.8750,-7.8750,0.41650390625000,-0.11859130859375,0.64031982421875,0.63439941406250,moving
59.61,3,0,0,0,5.7000,-5.7400,-2.3500,-23.5625,18.0000,-8.0000,0.41571044921875,-0.12084960937500,0.63958740234375,0.63519287109375,moving
59.62,3,0,0,0,5.6200,-5.3900,-1.9000,-8.3125,11.0625,-7.1250,0.41534423828125,-0.12219238281250,0.63946533203125,0.63531494140625,moving
59.63,3,0,0,0,5.1900,-5.2700,-1.6600,-0.1875,12.9375,-7.1875,0.41503906250000,-0.12329101562500,0.63989257812500,0.63488769531250,moving
59.64,3,0,0,0,4.7000,-5.0400,-1.3800,4.0000,14.5000,-5.8750,0.41461181640625,-0.12426757812500,0.64056396484375,0.63433837890625,moving
59.65,3,0,0,0,4.3400,-4.8300,-1.0900,9.1875,12.8125,-3.7500,0.41418457031250,-0.12487792968750,0.64147949218750,0.63354492187500,moving
59.66,3,0,0,0,3.7300,-4.2500,-0.8200,8.8750,8.6250,-3.1875,0.41394042968750,-0.12518310546875,0.64227294921875,0.63281250000000,moving
59.67,3,0,0,0,3.3900,-3.8300,-0.7100,2.9375,1.8750,-2.6250,0.41400146484375,-0.12530517578125,0.64245605468750,0.63250732421875,moving
59.68,3,0,0,0,2.9800,-3.2000,-0.6400,2.8125,-6.3125,-3.6250,0.41461181640625,-0.12506103515625,0.64239501953125,0.63232421875000,moving
59.69,3,0,0,0,2.4400,-2.4400,-0.6500,0.7500,-9.5000,-4.3125,0.41540527343750,-0.12475585937500,0.64202880859375,0.63220214843750,moving
59.70,3,0,0,0,0.7400,-0.3600,-0.5100,1.6875,-12.6875,-5.4375,0.41638183593750,-0.12432861328125,0.64160156250000,0.63201904296875,moving
59.71,3,0,0,0,-0.8800,0.9200,-0.2600,0.2500,-14.5000,-6.8750,0.41760253906250,-0.12390136718750,0.64099121093750,0.63195800781250,moving
59.72,3,0,0,0,-3.4300,2.9400,0.0200,0.0625,-14.4375,-9.5000,0.41894531250000,-0.12359619140625,0.64038085937500,0.63177490234375,moving
59.73,3,0,0,0,-6.9700,5.6000,0.2300,7.5000,-15.1875,-10.3125,0.42041015625000,-0.12304687500000,0.64013671875000,0.63110351562500,moving
59.74,3,0,0,0,-12.6300,12.1400,0.9900,18.6250,-23.5625,-7.1250,0.42230224609375,-0.12145996093750,0.64025878906250,0.63006591796875,moving
59.75,3,0,0,0,-13.3300,13.6300,1.1600,34.6250,-26.0000,-1.7500,0.42419433593750,-0.11889648437500,0.64117431640625,0.62835693359375,moving
59.76,3,0,0,0,-11.3100,12.1700,1.9700,59.6250,-26.1875,3.5000,0.42608642578125,-0.11505126953125,0.64349365234375,0.62536621093750,moving
59.77,3,0,0,0,-7.5700,9.1400,2.7400,79.9375,-25.6250,8.9375,0.42785644531250,-0.11016845703125,0.64697265625000,0.62145996093750,moving
59.78,3,0,0,0,-3.7400,4.4500,1.8100,75.1875,-4.4375,13.2500,0.42803955078125,-0.10632324218750,0.65100097656250,0.61773681640625,moving
59.79,3,0,0,0,-3.6900,4.4000,1.2700,52.3125,14.8125,15.6875,0.42687988281250,-0.10430908203125,0.65454101562500,0.61523437500000,moving
59.80,3,0,0,0,-3.3100,4.2500,1.3300,25.2500,18.7500,10.6875,0.42541503906250,-0.10375976562500,0.65667724609375,0.61401367187500,moving
59.81,3,0,0,0,-3.3100,4.2500,1.3300,25.2500,18.7500,10.6875,0.42541503906250,-0.10375976562500,0.65667724609375,0.61401367187500,moving
59.81,3,0,0,0,-0.6900,2.3100,1.7600,-1.9375,6.4375,4.0000,0.42480468750000,-0.10394287109375,0.65686035156250,0.61419677734375,moving
59.82,3,0,0,0,0.1200,1.1500,0.8400,-26.8750,-4.6875,-3.3750,0.42498779296875,-0.10485839843750,0.65521240234375,0.61566162109375,moving
59.83,3,0,0,0,1.2200,0.1100,0.2000,-44.3125,-12.1250,-5.4375,0.42559814453125,-0.10614013671875,0.65234375000000,0.61810302734375,moving
59.84,3,0,0,0,2.0000,-0.9100,-0.1200,-57.7500,-14.3125,-4.1875,0.42608642578125,-0.10778808593750,0.64868164062500,0.62133789062500,moving
59.85,3,0,0,0,3.9900,-3.1900,-0.8400,-63.6875,-7.3750,-3.1250,0.42608642578125,-0.10992431640625,0.64489746093750,0.62487792968750,moving
59.86,3,0,0,0,4.8900,-3.8700,-1.3600,-66.2500,11.9375,-2.0625,0.42486572265625,-0.11315917968750,0.64172363281250,0.62841796875000,moving
59.87,3,0,0,0,5.6200,-4.5800,-2.0000,-67.0000,34.8125,-2.1875,0.42236328125000,-0.11761474609375,0.63928222656250,0.63171386718750,moving
59.88,3,0,0,0,6.2200,-4.9800,-2.3900,-61.3125,45.5000,-2.6250,0.41931152343750,-0.12255859375000,0.63757324218750,0.63458251953125,moving
59.89,3,0,0,0,6.4000,-5.4500,-2.9100,-50.0000,48.1875,-2.6250,0.41619873046875,-0.12719726562500,0.63653564453125,0.63671875000000,moving
59.90,3,0,0,0,6.1600,-5.2500,-3.0900,-34.3750,44.3750,-1.0625,0.41339111328125,-0.13092041015625,0.63623046875000,0.63812255859375,moving
59.91,3,0,0,0,5.8400,-5.4000,-3.0500,-19.6875,35.2500,-1.5625,0.41131591796875,-0.13372802734375,0.63635253906250,0.63873291015625,moving
59.92,3,0,0,0,5.6800,-5.3100,-2.8400,-7.3750,24.9375,-0.1250,0.40985107421875,-0.13537597656250,0.63684082031250,0.63885498046875,moving
59.93,3,0,0,0,5.4200,-5.0600,-2.3200,2.7500,18.5000,1.9375,0.40869140625000,-0.13616943359375,0.63769531250000,0.63854980468750,moving
59.94,3,0,0,0,5.1100,-5.0900,-1.8400,10.6250,17.0000,0.9375,0.40783691406250,-0.13665771484375,0.63891601562500,0.63775634765625,moving
59.95,3,0,0,0,4.8400,-5.1900,-1.7000,8.5625,13.1250,-0.5625,0.40722656250000,-0.13714599609375,0.63989257812500,0.63714599609375,moving
59.96,3,0,0,0,4.0800,-4.4700,-1.1400,10.2500,6.8125,1.3750,0.40686035156250,-0.13702392578125,0.64074707031250,0.63653564453125,moving
59.97,3,0,0,0,3.5100,-3.8300,-1.2200,6.6250,8.6250,-0.9375,0.40649414062500,-0.13732910156250,0.64141845703125,0.63598632812500,moving
59.98,3,0,0,0,2.6400,-2.6500,-1.2100,1.4375,8.5000,-1.8125,0.40612792968750,-0.13787841796875,0.64178466796875,0.63574218750000,moving
59.99,3,0,0,0,1.4800,-1.5400,-1.1500,1.4375,5.1250,-4.9375,0.40612792968750,-0.13836669921875,0.64196777343750,0.63543701171875,moving
60.00,3,0,0,0,-0.9800,0.8300,-0.7200,2.6875,-4.6250,-6.3750,0.40673828125000,-0.13836669921875,0.64190673828125,0.63507080078125,moving
60.01,3,0,0,0,-2.5100,1.7300,-0.1400,7.3750,-18.0625,-7.8750,0.40826416015625,-0.13751220703125,0.64160156250000,0.63458251953125,moving
60.02,3,0,0,0,-3.8500,2.7100,0.5000,19.0625,-28.6875,-9.4375,0.41064453125000,-0.13580322265625,0.64154052734375,0.63354492187500,moving
60.03,3,0,0,0,-5.6200,4.4100,0.8000,34.7500,-31.3750,-4.7500,0.41302490234375,-0.13305664062500,0.64227294921875,0.63177490234375,moving
60.04,3,0,0,0,-11.4000,8.7600,1.4400,47.8125,-28.3750,-1.0000,0.41522216796875,-0.12982177734375,0.64392089843750,0.62939453125000,moving
60.05,3,0,0,0,-12.9800,10.9700,2.1600,56.8125,-24.5000,0.5625,0.41723632812500,-0.12640380859375,0.64611816406250,0.62646484375000,moving
60.06,3,0,0,0,-10.9000,10.3600,2.9400,69.6250,-6.8125,12.8750,0.41766357421875,-0.12274169921875,0.64984130859375,0.62304687500000,moving
60.07,3,0,0,0,-6.1000,6.9200,3.4800,101.1250,28.6250,31.8750,0.41534423828125,-0.11877441406250,0.65667724609375,0.61816406250000,moving
60.08,3,0,0,0,-6.1000,6.9200,3.4800,101.1250,28.6250,31.8750,0.41534423828125,-0.11877441406250,0.65667724609375,0.61816406250000,moving
60.09,3,0,0,0,-1.2600,-0.1300,3.8600,158.9375,1.7500,36.1875,0.41491699218750,-0.11108398437500,0.66564941406250,0.61029052734375,moving
60.09,3,0,0,0,-1.0400,-0.4400,4.0300,166.0625,-7.1875,34.7500,0.41503906250000,-0.10260009765625,0.67449951171875,0.60192871093750,moving
60.10,3,0,0,0,-1.1300,-0.1500,3.9000,121.4375,7.2500,25.1250,0.41430664062500,-0.09710693359375,0.68133544921875,0.59558105468750,moving
60.11,3,0,0,0,-0.8600,-0.8500,4.8900,56.0000,11.0000,8.0000,0.41369628906250,-0.09521484375000,0.68469238281250,0.59240722656250,moving
60.12,3,0,0,0,1.0200,-1.2500,3.1800,-8.5625,5.6250,-2.5625,0.41345214843750,-0.09594726562500,0.68444824218750,0.59277343750000,moving
60.13,3,0,0,0,1.1900,-1.7000,1.4900,-64.4375,-9.3125,-12.3750,0.41412353515625,-0.09851074218750,0.68066406250000,0.59625244140625,moving
60.14,3,0,0,0,1.1500,-1.9900,0.5100,-96.3125,-26.7500,-16.5000,0.41571044921875,-0.10162353515625,0.67449951171875,0.60162353515625,moving
60.15,3,0,0,0,1.7000,-1.2000,-0.4600,-107.8750,-35.8750,-15.3750,0.41766357421875,-0.10455322265625,0.66735839843750,0.60766601562500,moving
60.16,3,0,0,0,1.6500,-1.2600,-0.6700,-105.7500,-35.6250,-13.3125,0.41949462890625,-0.10723876953125,0.66027832031250,0.61364746093750,moving
60.17,3,0,0,0,1.6400,-0.9900,-0.9700,-94.8125,-21.8125,-11.4375,0.42041015625000,-0.11022949218750,0.65423583984375,0.61889648437500,moving
60.18,3,0,0,0,1.8000,-0.5100,-1.6900,-83.5000,3.0000,-6.8750,0.41979980468750,-0.11383056640625,0.64978027343750,0.62335205078125,moving
60.19,3,0,0,0,2.5900,0.2500,-2.7200,-62.0000,19.1250,-0.2500,0.41809082031250,-0.11712646484375,0.64709472656250,0.62670898437500,moving
60.20,3,0,0,0,2.8000,0.5300,-2.8100,-33.1875,24.0000,4.8125,0.41613769531250,-0.11938476562500,0.64617919921875,0.62847900390625,moving
60.21,3,0,0,0,2.6300,0.5200,-3.0300,-7.5000,21.8750,6.0625,0.41448974609375,-0.12054443359375,0.64660644531250,0.62890625000000,moving
60.22,3,0,0,0,1.5600,-0.0900,-2.5000,15.0000,6.6875,1.7500,0.41418457031250,-0.12023925781250,0.64770507812500,0.62805175781250,moving
60.23,3,0,0,0,0.4700,-0.9600,-0.7100,30.1875,-15.1250,0.2500,0.41534423828125,-0.11834716796875,0.64880371093750,0.62652587890625,moving
60.24,3,0,0,0,-0.1600,-0.9700,0.1600,44.3750,-24.1875,0.1875,0.41717529296875,-0.11541748046875,0.65039062500000,0.62420654296875,moving
60.25,3,0,0,0,-0.1400,-1.2500,0.4600,51.2500,-21.0625,1.1250,0.41882324218750,-0.11230468750000,0.65240478515625,0.62158203125000,moving
60.26,3,0,0,0,-0.6400,-0.5300,0.2300,54.4375,-11.8125,3.9375,0.41979980468750,-0.10943603515625,0.65496826171875,0.61871337890625,stop
60.27,3,0,0,0,-0.6200,-0.1100,0.9900,48.5625,-9.5625,2.9375,0.42065429687500,-0.10699462890625,0.65728759765625,0.61614990234375,stop
60.28,3,0,0,0,-0.2200,0.6300,1.2400,28.7500,-0.6875,2.0625,0.42083740234375,-0.10577392578125,0.65881347656250,0.61456298828125,stop
60.29,3,0,0,0,0.2100,0.7400,1.3500,13.6250,3.3750,1.3125,0.42071533203125,-0.10534667968750,0.65966796875000,0.61383056640625,stop
60.30,3,0,0,0,0.2300,0.4200,0.4500,2.0000,7.5625,1.0625,0.42022705078125,-0.10559082031250,0.66003417968750,0.61364746093750,stop
60.31,3,0,0,0,0.0500,0.1600,0.2800,-4.0000,5.1875,1.4375,0.41979980468750,-0.10595703125000,0.66003417968750,0.61389160156250,stop
60.32,3,0,0,0,-0.1200,-0.1000,0.1700,-5.9375,0.4375,2.0625,0.41961669921875,-0.10607910156250,0.65972900390625,0.61431884765625,stop
60.33,3,0,0,0,-0.3700,-0.4000,0.0000,-4.3750,1.1250,2.2500,0.41937255859375,-0.10614013671875,0.65960693359375,0.61462402343750,stop
60.34,3,0,0,0,-0.4400,-0.6100,0.2400,-1.1875,0.2500,1.3125,0.41931152343750,-0.10607910156250,0.65954589843750,0.61474609375000,stop
60.35,3,0,0,0,-0.2700,-0.5700,0.4100,1.5000,-3.5625,0.3125,0.41955566406250,-0.10583496093750,0.65948486328125,0.61474609375000,stop
60.36,3,0,0,0,-0.1300,-0.4600,0.4300,0.6875,-3.1875,-0.7500,0.41973876953125,-0.10571289062500,0.65936279296875,0.61468505859375,stop
60.37,3,0,0,0,-0.1300,-0.4600,0.4300,0.6875,-3.1875,-0.7500,0.41973876953125,-0.10571289062500,0.65936279296875,0.61468505859375,stop
60.37,3,0,0,0,0.0700,-0.1700,0.4800,-1.8125,-3.4375,-1.6875,0.42004394531250,-0.10565185546875,0.65911865234375,0.61474609375000,stop
60.38,3,0,0,0,0.3900,0.2300,0.3900,-4.8125,-5.6875,-2.2500,0.42047119140625,-0.10565185546875,0.65863037109375,0.61499023437500,stop
60.39,3,0,0,0,0.4700,0.3000,0.2400,-5.9375,-7.1875,-1.8750,0.42089843750000,-0.10559082031250,0.65802001953125,0.61535644531250,stop
60.40,3,0,0,0,0.5000,0.3200,0.1300,-4.3125,-6.5000,-1.3750,0.42132568359375,-0.10552978515625,0.65753173828125,0.61560058593750,stop
60.41,3,0,0,0,0.5000,0.3100,0.0300,-2.0000,-5.1875,0.0000,0.42156982421875,-0.10528564453125,0.65722656250000,0.61578369140625,stop
60.42,3,0,0,0,0.0700,-0.1100,-0.1400,0.8750,-5.5625,0.7500,0.42187500000000,-0.10491943359375,0.65710449218750,0.61578369140625,stop
60.43,3,0,0,0,0.0400,-0.2700,-0.0100,3.2500,-4.8125,0.5000,0.42218017578125,-0.10455322265625,0.65710449218750,0.61566162109375,stop
60.44,3,0,0,0,0.0000,-0.4700,0.0600,1.1250,-2.4375,0.0625,0.42236328125000,-0.10437011718750,0.65704345703125,0.61560058593750,stop
60.45,3,0,0,0,0.0500,-0.4500,0.0600,2.2500,-2.6250,0.6250,0.42248535156250,-0.10406494140625,0.65710449218750,0.61553955078125,stop
60.46,3,0,0,0,0.0200,-0.4400,0.1100,1.2500,-3.1875,1.1250,0.42260742187500,-0.10375976562500,0.65704345703125,0.61553955078125,stop
60.47,3,0,0,0,0.0900,-0.3800,0.1700,-0.1875,-5.0000,1.3125,0.42285156250000,-0.10345458984375,0.65686035156250,0.61566162109375,stop
60.48,3,0,0,0,0.1300,-0.3000,0.0700,-2.3125,-4.3125,0.8750,0.42297363281250,-0.10321044921875,0.65661621093750,0.61584472656250,stop
60.49,3,0,0,0,0.4200,-0.0100,-0.2000,-4.6875,-3.3125,0.0000,0.42315673828125,-0.10321044921875,0.65625000000000,0.61614990234375,stop
60.50,3,0,0,0,0.5100,0.0800,-0.2900,-5.6875,-4.3125,-0.6875,0.42340087890625,-0.10327148437500,0.65576171875000,0.61651611328125,stop
60.51,3,0,0,0,0.5600,0.1400,-0.3400,-5.5000,-4.1875,-0.9375,0.42364501953125,-0.10327148437500,0.65527343750000,0.61682128906250,stop
60.52,3,0,0,0,0.5300,0.1800,-0.3200,-4.0625,-3.2500,-1.1875,0.42382812500000,-0.10333251953125,0.65490722656250,0.61706542968750,stop
60.53,3,0,0,0,0.4000,0.1600,-0.2300,-2.0000,-1.8125,-1.1250,0.42401123046875,-0.10333251953125,0.65472412109375,0.61712646484375,stop
60.54,3,0,0,0,0.3300,0.1300,-0.1700,-0.1875,0.1875,-1.1250,0.42407226562500,-0.10345458984375,0.65472412109375,0.61712646484375,stop
60.55,3,0,0,0,0.2500,0.0900,-0.1400,0.3750,1.5000,-1.0000,0.42401123046875,-0.10357666015625,0.65478515625000,0.61706542968750,stop
60.56,3,0,0,0,0.0400,-0.1800,0.0100,0.1250,2.0625,-1.4375,0.41400146484375,-0.09490966796875,0.66174316406250,0.61779785156250,stop
60.57,3,0,0,0,0.0400,-0.2900,-0.0200,0.0625,1.7500,-1.8750,0.41400146484375,-0.09515380859375,0.66180419921875,0.61767578125000,stop
60.58,3,0,0,0,0.0300,-0.2200,-0.0200,1.0000,1.3750,-1.4375,0.41400146484375,-0.09527587890625,0.66192626953125,0.61755371093750,stop
60.59,3,0,0,0,-0.0300,-0.2700,-0.0300,1.3750,1.1875,-1.3125,0.41406250000000,-0.09539794921875,0.66198730468750,0.61743164062500,stop
60.60,3,0,0,0,-0.0700,-0.2400,0.0600,1.3750,0.7500,-1.3125,0.41412353515625,-0.09552001953125,0.66210937500000,0.61724853515625,stop
60.61,3,0,0,0,-0.0900,-0.2900,-0.0200,0.5625,0.6250,-1.3750,0.41424560546875,-0.09564208984375,0.66210937500000,0.61712646484375,stop
60.62,3,0,0,0,-0.1200,-0.3200,0.0500,2.5000,-0.6250,-1.1250,0.41442871093750,-0.09564208984375,0.66217041015625,0.61694335937500,stop
60.63,3,0,0,0,-0.0500,-0.3800,0.0400,1.3750,0.0000,-1.2500,0.41455078125000,-0.09576416015625,0.66223144531250,0.61676025390625,stop
60.64,3,0,0,0,-0.0300,-0.3600,0.1600,2.5000,-0.8125,-1.0625,0.41479492187500,-0.09576416015625,0.66229248046875,0.61657714843750,stop
60.65,3,0,0,0,0.0500,-0.3000,0.1400,2.1875,-0.5625,-1.2500,0.41497802734375,-0.09582519531250,0.66229248046875,0.61639404296875,stop
60.66,3,0,0,0,0.0500,-0.2200,0.2000,2.3750,-1.2500,-1.0000,0.41522216796875,-0.09576416015625,0.66229248046875,0.61627197265625,stop
60.67,3,0,0,0,0.1300,-0.1900,0.2200,1.8750,-1.0000,-0.8125,0.41540527343750,-0.09570312500000,0.66229248046875,0.61614990234375,stop
60.68,3,0,0,0,0.1800,-0.1400,0.2300,1.1250,-0.0625,-0.8125,0.41546630859375,-0.09570312500000,0.66229248046875,0.61614990234375,stop
60.69,3,0,0,0,0.1900,-0.1500,0.2200,0.0625,0.0625,-0.7500,0.41558837890625,-0.09576416015625,0.66217041015625,0.61614990234375,stop
60.70,3,0,0,0,0.1300,-0.1500,0.1200,-1.0625,0.4375,-0.6875,0.41564941406250,-0.09582519531250,0.66204833984375,0.61627197265625,stop
60.71,3,0,0,0,0.1000,-0.1600,0.1000,-1.7500,0.6875,-0.8750,0.41564941406250,-0.09594726562500,0.66192626953125,0.61633300781250,stop
60.72,3,0,0,0,0.0500,-0.1500,0.0200,-1.7500,0.3750,-1.0000,0.41571044921875,-0.09613037109375,0.66180419921875,0.61639404296875,stop
60.73,3,0,0,0,0.0000,-0.1800,0.0100,-1.5625,0.3750,-1.0625,0.41577148437500,-0.09625244140625,0.66174316406250,0.61645507812500,stop
60.74,3,0,0,0,0.0000,-0.1700,0.0000,-1.3750,0.4375,-1.3125,0.41583251953125,-0.09637451171875,0.66162109375000,0.61651611328125,stop
60.75,3,0,0,0,0.0200,-0.1700,-0.0300,-1.3750,0.4375,-1.3125,0.41589355468750,-0.09649658203125,0.66149902343750,0.61651611328125,stop
60.76,3,0,0,0,0.0400,-0.1600,-0.0200,-1.3125,0.5000,-0.9375,0.41595458984375,-0.09661865234375,0.66143798828125,0.61657714843750,stop
60.77,3,0,0,0,0.0400,-0.1500,-0.0500,-1.3125,0.5000,-0.6875,0.41595458984375,-0.09674072265625,0.66137695312500,0.61663818359375,stop
60.78,3,0,0,0,0.0400,-0.1700,-0.0600,-0.3125,0.3750,-0.3125,0.41595458984375,-0.09674072265625,0.66137695312500,0.61663818359375,stop
60.79,3,0,0,0,0.0600,-0.2400,-0.0900,0.6875,0.5000,0.1250,0.41601562500000,-0.09674072265625,0.66137695312500,0.61657714843750,stop
60.80,3,0,0,0,0.0800,-0.2500,-0.0200,2.1250,0.3125,0.1875,0.41601562500000,-0.09667968750000,0.66149902343750,0.61639404296875,stop
60.81,3,0,0,0,0.0700,-0.2200,0.0500,3.7500,0.4375,0.5000,0.41607666015625,-0.09649658203125,0.66174316406250,0.61621093750000,stop
60.82,3,0,0,0,0.0900,-0.2200,0.1400,5.3125,-0.1875,0.4375,0.41613769531250,-0.09637451171875,0.66198730468750,0.61590576171875,stop
60.83,3,0,0,0,0.0700,-0.2000,0.2400,5.3125,-0.5000,0.6875,0.41619873046875,-0.09613037109375,0.66223144531250,0.61566162109375,stop
60.84,3,0,0,0,0.0600,-0.2100,0.2100,4.6875,-0.7500,0.6250,0.41625976562500,-0.09588623046875,0.66235351562500,0.61541748046875,stop
60.85,3,0,0,0,0.0500,-0.1700,0.1900,3.0000,-0.6875,0.4375,0.41638183593750,-0.09576416015625,0.66247558593750,0.61529541015625,stop
60.86,3,0,0,0,0.0600,-0.1300,0.1400,1.5625,-0.4375,0.5625,0.41644287109375,-0.09570312500000,0.66247558593750,0.61529541015625,stop
60.87,3,0,0,0,0.0500,-0.1300,0.0900,1.3125,0.0000,0.6250,0.41644287109375,-0.09558105468750,0.66253662109375,0.61523437500000,stop
60.88,3,0,0,0,0.0700,-0.1500,0.0900,1.7500,0.0625,0.9375,0.41644287109375,-0.09545898437500,0.66259765625000,0.61517333984375,stop
60.89,3,0,0,0,0.0500,-0.1500,0.0700,1.7500,0.1875,0.9375,0.41638183593750,-0.09539794921875,0.66265869140625,0.61511230468750,stop
60.90,3,0,0,0,0.0300,-0.1800,0.0700,1.6875,0.6875,0.8125,0.41632080078125,-0.09533691406250,0.66278076171875,0.61505126953125,stop
60.91,3,0,0,0,-0.0100,-0.2200,0.1600,1.7500,0.5625,0.6875,0.41632080078125,-0.09527587890625,0.66284179687500,0.61499023437500,stop
60.92,3,0,0,0,-0.0100,-0.2300,0.1000,1.4375,0.6250,0.7500,0.41632080078125,-0.09521484375000,0.66290283203125,0.61492919921875,stop
60.93,3,0,0,0,0.0000,-0.2400,0.1100,0.7500,0.3125,0.8750,0.41632080078125,-0.09515380859375,0.66296386718750,0.61492919921875,stop
60.94,3,0,0,0,0.0200,-0.2800,0.0800,0.2500,0.4375,0.7500,0.41632080078125,-0.09515380859375,0.66290283203125,0.61499023437500,stop
60.95,3,0,0,0,0.0500,-0.3100,0.0000,0.0625,0.5000,0.6250,0.41632080078125,-0.09515380859375,0.66290283203125,0.61499023437500,stop
60.96,3,0,0,0,0.0500,-0.3000,0.0400,0.8750,0.8750,0.5625,0.41625976562500,-0.09515380859375,0.66296386718750,0.61492919921875,stop
60.97,3,0,0,0,0.0400,-0.2500,0.1000,2.1250,1.3125,0.5000,0.41625976562500,-0.09521484375000,0.66308593750000,0.61480712890625,stop
60.98,3,0,0,0,-0.0200,-0.2100,0.1400,2.6250,1.4375,0.6875,0.41619873046875,-0.09515380859375,0.66326904296875,0.61468505859375,stop
61.00,3,0,0,0,-0.0500,-0.2200,0.1900,2.3750,1.1250,0.7500,0.41613769531250,-0.09515380859375,0.66339111328125,0.61456298828125,stop
61.00,3,0,0,0,-0.0600,-0.2200,0.1600,1.7500,1.3750,0.6875,0.41613769531250,-0.09515380859375,0.66345214843750,0.61450195312500,stop
61.01,3,0,0,0,-0.0400,-0.1900,0.1500,1.2500,1.2500,0.5000,0.41613769531250,-0.09521484375000,0.66351318359375,0.61444091796875,stop
61.02,3,0,0,0,0.0100,-0.2300,0.1400,0.8750,0.9375,0.1875,0.41613769531250,-0.09527587890625,0.66351318359375,0.61437988281250,stop
61.03,3,0,0,0,0.0000,-0.2100,0.0800,1.1250,0.4375,0.0625,0.41619873046875,-0.09527587890625,0.66357421875000,0.61431884765625,stop
61.04,3,0,0,0,0.0000,-0.2100,0.0800,1.6875,0.0000,0.0000,0.41625976562500,-0.09527587890625,0.66357421875000,0.61425781250000,stop
61.05,3,0,0,0,-0.0100,-0.2500,0.0900,2.1875,-0.1875,0.1250,0.41632080078125,-0.09521484375000,0.66369628906250,0.61413574218750,stop
61.06,3,0,0,0,-0.0300,-0.2800,0.0800,2.4375,-0.0625,0.0625,0.41638183593750,-0.09515380859375,0.66375732421875,0.61395263671875,stop
61.07,3,0,0,0,0.0000,-0.2900,0.0900,2.7500,-0.3750,0.2500,0.41650390625000,-0.09509277343750,0.66387939453125,0.61376953125000,stop
61.09,3,0,0,0,0.0200,-0.2700,0.1700,2.2500,-0.7500,0.0000,0.41662597656250,-0.09503173828125,0.66394042968750,0.61370849609375,stop
61.09,3,0,0,0,0.0400,-0.2500,0.1600,1.9375,-1.0000,0.0000,0.41674804687500,-0.09497070312500,0.66394042968750,0.61358642578125,stop
61.10,3,0,0,0,0.0500,-0.1800,0.1700,1.5000,-0.8750,0.0000,0.41687011718750,-0.09484863281250,0.66394042968750,0.61352539062500,stop
61.11,3,0,0,0,0.0300,-0.1400,0.1500,1.0625,-0.5625,0.0000,0.41699218750000,-0.09484863281250,0.66387939453125,0.61352539062500,stop
61.12,3,0,0,0,0.0300,-0.1400,0.1600,0.8125,-0.3125,0.0000,0.41699218750000,-0.09478759765625,0.66387939453125,0.61346435546875,stop
61.13,3,0,0,0,0.0200,-0.1800,0.1100,0.2500,0.0625,0.0625,0.41705322265625,-0.09484863281250,0.66387939453125,0.61346435546875,stop
61.14,3,0,0,0,0.0400,-0.2100,0.0500,0.1875,0.6250,-0.0625,0.41705322265625,-0.09490966796875,0.66381835937500,0.61346435546875,stop
61.15,3,0,0,0,0.0500,-0.2500,0.0500,0.1875,0.2500,0.0000,0.41711425781250,-0.09490966796875,0.66381835937500,0.61352539062500,stop
61.16,3,0,0,0,0.0700,-0.2700,0.0000,0.5625,0.0000,-0.0625,0.41711425781250,-0.09490966796875,0.66381835937500,0.61346435546875,stop
61.17,3,0,0,0,0.0500,-0.2300,0.0700,1.0625,-0.2500,-0.1250,0.41717529296875,-0.09490966796875,0.66387939453125,0.61340332031250,stop
61.18,3,0,0,0,0.0400,-0.2000,0.1300,1.4375,-0.3125,-0.0625,0.41717529296875,-0.09484863281250,0.66394042968750,0.61334228515625,stop
61.19,3,0,0,0,0.0300,-0.1800,0.1700,1.5625,-0.5000,0.0000,0.41723632812500,-0.09484863281250,0.66394042968750,0.61322021484375,stop
61.20,3,0,0,0,0.0500,-0.1400,0.1400,1.0625,-0.7500,0.0000,0.41735839843750,-0.09472656250000,0.66394042968750,0.61322021484375,stop
61.21,3,0,0,0,0.0900,-0.1300,0.1500,0.4375,-0.6875,-0.2500,0.41741943359375,-0.09472656250000,0.66387939453125,0.61322021484375,stop
61.22,3,0,0,0,0.0800,-0.1500,0.0500,-0.0625,-0.7500,-0.1875,0.41748046875000,-0.09466552734375,0.66381835937500,0.61328125000000,stop
61.23,3,0,0,0,0.0900,-0.1800,0.0300,-0.1250,-1.0000,-0.2500,0.41754150390625,-0.09466552734375,0.66375732421875,0.61328125000000,stop
61.24,3,0,0,0,0.0800,-0.1700,0.0000,0.0000,-0.8750,-0.1250,0.41760253906250,-0.09460449218750,0.66369628906250,0.61328125000000,stop
61.25,3,0,0,0,0.0600,-0.1500,0.0600,0.3125,-0.5625,-0.0625,0.41766357421875,-0.09460449218750,0.66369628906250,0.61328125000000,stop
61.26,3,0,0,0,0.0400,-0.1500,0.0800,0.5000,-0.6875,-0.0625,0.41772460937500,-0.09454345703125,0.66363525390625,0.61328125000000,stop
61.27,3,0,0,0,0.0100,-0.1600,0.0900,0.3750,-0.5625,-0.0625,0.41778564453125,-0.09454345703125,0.66357421875000,0.61334228515625,stop
61.28,3,0,0,0,0.0300,-0.1600,0.0900,0.0000,-0.2500,0.0000,0.41778564453125,-0.09454345703125,0.66357421875000,0.61334228515625,stop
61.29,3,0,0,0,0.0400,-0.1900,0.0100,-0.5000,-0.4375,-0.0625,0.41784667968750,-0.09454345703125,0.66357421875000,0.61334228515625,stop
61.30,3,0,0,0,0.0600,-0.2100,-0.0200,-0.6250,-0.2500,-0.1250,0.41784667968750,-0.09460449218750,0.66351318359375,0.61334228515625,stop
61.31,3,0,0,0,0.0600,-0.2400,-0.0400,-0.5000,0.0000,0.0000,0.41784667968750,-0.09460449218750,0.66351318359375,0.61334228515625,stop
61.33,3,0,0,0,0.0900,-0.2500,0.0000,-0.1250,0.3125,-0.1875,0.41784667968750,-0.09460449218750,0.66351318359375,0.61334228515625,stop
61.34,3,0,0,0,0.0900,-0.2400,0.0600,0.5000,0.1875,0.0000,0.41790771484375,-0.09460449218750,0.66351318359375,0.61334228515625,stop
61.34,3,0,0,0,0.0600,-0.2200,0.0800,1.1875,0.2500,-0.1875,0.41790771484375,-0.09460449218750,0.66351318359375,0.61328125000000,stop
61.35,3,0,0,0,0.0400,-0.2200,0.1300,1.4375,0.6875,-0.1875,0.41790771484375,-0.09460449218750,0.66363525390625,0.61322021484375,stop
61.36,3,0,0,0,0.0600,-0.2000,0.1400,1.2500,0.6875,-0.1250,0.41790771484375,-0.09460449218750,0.66369628906250,0.61315917968750,stop
61.37,3,0,0,0,0.0400,-0.2200,0.1300,0.5000,1.0625,-0.0625,0.41790771484375,-0.09472656250000,0.66369628906250,0.61315917968750,stop
61.38,3,0,0,0,0.0400,-0.2300,0.0600,-0.0625,1.1875,0.0000,0.41784667968750,-0.09478759765625,0.66369628906250,0.61315917968750,stop
61.39,3,0,0,0,0.0500,-0.2400,0.0400,-0.5625,1.1875,-0.1250,0.41778564453125,-0.09490966796875,0.66369628906250,0.61315917968750,stop
61.41,3,0,0,0,0.0300,-0.2500,-0.0300,-0.2500,0.8750,-0.0625,0.41778564453125,-0.09497070312500,0.66369628906250,0.61315917968750,stop
61.42,3,0,0,0,0.0100,-0.2000,0.0000,0.5000,1.1250,-0.2500,0.41772460937500,-0.09503173828125,0.66369628906250,0.61315917968750,stop
61.42,3,0,0,0,0.0400,-0.2300,0.0500,1.5000,1.4375,-0.2500,0.41766357421875,-0.09509277343750,0.66381835937500,0.61303710937500,stop
61.43,3,0,0,0,0.0300,-0.2300,0.0600,2.4375,1.5625,-0.1875,0.41766357421875,-0.09509277343750,0.66400146484375,0.61285400390625,stop
61.44,3,0,0,0,0.0600,-0.1900,0.0900,2.5625,1.3750,-0.0625,0.41760253906250,-0.09509277343750,0.66418457031250,0.61273193359375,stop
61.45,3,0,0,0,0.0500,-0.2000,0.0700,2.3750,1.2500,0.0000,0.41754150390625,-0.09509277343750,0.66430664062500,0.61254882812500,stop
61.46,3,0,0,0,0.0500,-0.1900,0.0400,2.0000,1.3750,-0.1250,0.41754150390625,-0.09515380859375,0.66448974609375,0.61242675781250,stop
61.48,3,0,0,0,0.0700,-0.2200,0.0700,1.8125,1.0625,0.0000,0.41748046875000,-0.09515380859375,0.66461181640625,0.61236572265625,stop
61.49,3,0,0,0,0.0800,-0.2300,0.0300,2.0000,1.0000,0.1250,0.41748046875000,-0.09515380859375,0.66473388671875,0.61224365234375,stop
61.50,3,0,0,0,0.0700,-0.2400,0.0200,2.2500,0.8125,0.2500,0.41748046875000,-0.09509277343750,0.66485595703125,0.61206054687500,stop
61.50,3,0,0,0,0.1100,-0.2200,0.0300,2.5625,0.8750,0.3750,0.41748046875000,-0.09509277343750,0.66503906250000,0.61193847656250,stop
61.51,3,0,0,0,0.1300,-0.2100,0.0700,2.9375,1.0000,0.5625,0.41741943359375,-0.09497070312500,0.66522216796875,0.61175537109375,stop
61.52,3,0,0,0,0.1300,-0.1900,0.1000,3.1875,1.3125,0.6250,0.41735839843750,-0.09490966796875,0.66540527343750,0.61157226562500,stop
61.53,3,0,0,0,0.1200,-0.1900,0.0800,3.3750,1.6875,0.8125,0.41723632812500,-0.09484863281250,0.66564941406250,0.61145019531250,stop
61.54,3,0,0,0,0.1100,-0.2200,0.1000,3.1250,1.6875,1.0000,0.41711425781250,-0.09478759765625,0.66583251953125,0.61126708984375,stop
61.55,3,0,0,0,0.0900,-0.2500,0.0600,3.0625,1.8750,1.1250,0.41699218750000,-0.09472656250000,0.66607666015625,0.61114501953125,stop
61.57,3,0,0,0,0.0800,-0.2900,0.1000,3.2500,2.5000,1.3125,0.41687011718750,-0.09466552734375,0.66632080078125,0.61096191406250,stop
61.58,3,0,0,0,0.0600,-0.3400,0.1100,3.5000,2.5625,1.3750,0.41668701171875,-0.09460449218750,0.66656494140625,0.61083984375000,stop
61.59,3,0,0,0,0.0800,-0.3300,0.1300,3.3750,2.1875,1.5000,0.41656494140625,-0.09454345703125,0.66680908203125,0.61065673828125,stop
61.59,3,0,0,0,0.1100,-0.3600,0.1400,3.4375,2.0000,1.4375,0.41650390625000,-0.09448242187500,0.66699218750000,0.61053466796875,stop
61.60,3,0,0,0,0.1100,-0.4300,0.1400,4.2500,1.8125,1.6875,0.41638183593750,-0.09442138671875,0.66723632812500,0.61035156250000,stop
61.61,3,0,0,0,0.1100,-0.4400,0.1100,4.6875,1.2500,1.9375,0.41632080078125,-0.09423828125000,0.66748046875000,0.61010742187500,stop
61.62,3,0,0,0,0.1300,-0.4500,0.1100,4.8750,1.0625,2.0000,0.41632080078125,-0.09405517578125,0.66772460937500,0.60992431640625,stop
61.64,3,0,0,0,0.1500,-0.4700,0.0100,4.9375,0.5625,2.2500,0.41625976562500,-0.09381103515625,0.66796875000000,0.60968017578125,stop
61.65,3,0,0,0,0.2100,-0.4800,0.0000,4.4375,0.3125,2.5000,0.41619873046875,-0.09356689453125,0.66821289062500,0.60949707031250,stop
61.66,3,0,0,0,0.3400,-0.5400,-0.0400,3.5625,0.1875,2.8750,0.41607666015625,-0.09332275390625,0.66839599609375,0.60943603515625,stop
61.67,3,0,0,0,0.5500,-0.7100,-0.1300,2.6250,-0.0625,3.3125,0.41595458984375,-0.09301757812500,0.66857910156250,0.60937500000000,stop
61.67,3,0,0,0,0.6500,-0.7800,-0.2900,1.7500,-0.1250,3.8750,0.41577148437500,-0.09271240234375,0.66870117187500,0.60943603515625,stop
61.68,3,0,0,0,0.7900,-0.7900,-0.4000,1.0625,-0.0625,4.0000,0.41552734375000,-0.09246826171875,0.66876220703125,0.60949707031250,stop
61.70,3,0,0,0,0.9200,-0.8100,-0.2900,0.5625,1.2500,3.8125,0.41528320312500,-0.09228515625000,0.66888427734375,0.60961914062500,stop
61.70,3,0,0,0,1.0000,-0.8700,-0.6200,-1.1875,8.0625,3.0625,0.41461181640625,-0.09259033203125,0.66912841796875,0.60974121093750,stop
61.72,3,0,0,0,1.0600,-0.8300,-0.3500,1.0000,6.8750,2.7500,0.41412353515625,-0.09277343750000,0.66943359375000,0.60968017578125,stop
61.73,3,0,0,0,1.1500,-0.7200,-0.3000,5.5625,5.0625,2.9375,0.41369628906250,-0.09265136718750,0.66998291015625,0.60943603515625,stop
61.74,3,0,0,0,1.1400,-0.6200,-0.1600,7.2500,6.0000,3.6250,0.41320800781250,-0.09246826171875,0.67059326171875,0.60913085937500,stop
61.75,3,0,0,0,1.2000,-0.5700,-0.1300,7.6250,5.9375,4.3125,0.41271972656250,-0.09228515625000,0.67126464843750,0.60876464843750,stop
61.75,3,0,0,0,0.9400,-0.4900,-0.0900,6.5000,8.2500,4.4375,0.41204833984375,-0.09222412109375,0.67193603515625,0.60845947265625,stop
61.76,3,0,0,0,0.6000,-0.1700,0.0100,6.6250,10.2500,4.8750,0.41119384765625,-0.09222412109375,0.67266845703125,0.60815429687500,stop
61.77,3,0,0,0,0.6000,-0.1700,0.0100,6.6250,10.2500,4.8750,0.41119384765625,-0.09222412109375,0.67266845703125,0.60815429687500,stop
61.78,3,0,0,0,0.2400,0.0500,0.3000,9.3750,7.3750,5.3750,0.41058349609375,-0.09197998046875,0.67352294921875,0.60778808593750,stop
61.79,3,0,0,0,-0.8100,0.2200,0.7200,14.2500,3.0625,5.5625,0.41021728515625,-0.09130859375000,0.67437744140625,0.60711669921875,stop
61.80,3,0,0,0,-1.4800,0.5000,0.8700,20.8125,-0.4375,4.4375,0.41015625000000,-0.09027099609375,0.67553710937500,0.60601806640625,stop
61.81,3,0,0,0,-2.2600,1.0200,1.0800,23.9375,-3.3750,2.1250,0.41040039062500,-0.08911132812500,0.67669677734375,0.60473632812500,stop
61.82,3,0,0,0,-3.6600,2.5400,1.3600,21.6250,-4.3750,0.3750,0.41082763671875,-0.08813476562500,0.67767333984375,0.60345458984375,stop
61.83,3,0,0,0,-4.1200,3.3500,1.5100,16.7500,-5.4375,-0.6250,0.41131591796875,-0.08728027343750,0.67834472656250,0.60253906250000,stop
61.84,3,0,0,0,-4.4100,4.0600,1.4500,12.7500,-7.3750,-0.9375,0.41192626953125,-0.08648681640625,0.67877197265625,0.60180664062500,stop
61.84,3,0,0,0,-4.4200,4.1000,1.2700,8.4375,-9.8125,-1.1250,0.41265869140625,-0.08575439453125,0.67883300781250,0.60131835937500,stop
61.85,3,0,0,0,-4.0400,3.8200,0.7100,0.6875,-9.3750,-1.8125,0.41333007812500,-0.08532714843750,0.67852783203125,0.60125732421875,stop
61.87,3,0,0,0,-3.3000,3.3900,0.6100,-11.0625,-1.6875,-3.6250,0.41351318359375,-0.08587646484375,0.67779541015625,0.60180664062500,stop
61.88,3,0,0,0,-2.3200,2.9400,0.5600,-21.0000,1.5625,-5.0625,0.41357421875000,-0.08703613281250,0.67675781250000,0.60284423828125,stop
61.89,3,0,0,0,-1.6100,2.3800,0.4600,-32.1250,3.3750,-6.3750,0.41345214843750,-0.08874511718750,0.67510986328125,0.60449218750000,stop
61.90,3,0,0,0,-0.3300,1.0400,0.0200,-42.3750,3.2500,-7.5625,0.41333007812500,-0.09088134765625,0.67291259765625,0.60668945312500,stop
61.91,3,0,0,0,0.3000,0.2300,-0.2300,-50.0000,3.8750,-8.4375,0.41314697265625,-0.09338378906250,0.67034912109375,0.60931396484375,stop
61.92,3,0,0,0,1.1000,-0.6100,-0.2800,-53.7500,1.9375,-8.3125,0.41302490234375,-0.09594726562500,0.66748046875000,0.61212158203125,stop
61.92,3,0,0,0,1.6900,-1.0100,-0.6300,-56.7500,4.3750,-7.1875,0.41271972656250,-0.09863281250000,0.66448974609375,0.61511230468750,stop
61.93,3,0,0,0,2.8000,-2.1900,-1.1800,-58.0000,8.0000,-5.7500,0.41204833984375,-0.10150146484375,0.66162109375000,0.61822509765625,stop
61.95,3,0,0,0,3.1700,-2.7600,-1.4500,-52.1250,8.6250,-3.8750,0.41131591796875,-0.10406494140625,0.65905761718750,0.62097167968750,stop
61.96,3,0,0,0,3.5100,-3.0900,-1.7500,-43.2500,9.9375,-2.5000,0.41046142578125,-0.10626220703125,0.65704345703125,0.62329101562500,stop
61.97,3,0,0,0,3.6500,-3.5500,-1.9600,-33.6250,11.0625,-2.7500,0.40966796875000,-0.10827636718750,0.65557861328125,0.62500000000000,stop
61.98,3,0,0,0,4.0000,-3.9100,-2.1200,-24.7500,11.2500,-2.4375,0.40893554687500,-0.10992431640625,0.65460205078125,0.62622070312500,stop
61.99,3,0,0,0,4.0600,-4.0100,-2.1100,-18.0625,10.9375,-2.5625,0.40826416015625,-0.11126708984375,0.65399169921875,0.62707519531250,stop
62.00,3,0,0,0,4.0800,-3.9700,-1.9400,-12.1250,10.1250,-2.1875,0.40771484375000,-0.11242675781250,0.65368652343750,0.62756347656250,stop
62.01,3,0,0,0,3.9100,-3.8300,-1.9900,-11.4375,11.1875,-2.2500,0.40704345703125,-0.11358642578125,0.65344238281250,0.62805175781250,stop
62.01,3,0,0,0,3.6800,-3.7000,-1.8700,-6.6875,13.0000,-1.8125,0.40637207031250,-0.11462402343750,0.65350341796875,0.62823486328125,stop
62.03,3,0,0,0,3.4900,-3.3900,-1.7600,-1.4375,16.0000,-1.5000,0.40551757812500,-0.11566162109375,0.65399169921875,0.62811279296875,stop
62.03,3,0,0,0,3.4900,-3.3900,-1.7600,-1.4375,16.0000,-1.5000,0.40551757812500,-0.11566162109375,0.65399169921875,0.62811279296875,stop
62.04,3,0,0,0,3.3500,-3.2000,-1.3600,3.5000,15.1250,-0.1875,0.40466308593750,-0.11633300781250,0.65472412109375,0.62774658203125,stop
62.05,3,0,0,0,2.7900,-2.6500,-0.4600,12.4375,11.6250,0.3750,0.40411376953125,-0.11651611328125,0.65582275390625,0.62689208984375,stop
62.06,3,0,0,0,2.1200,-2.2300,-0.0100,22.7500,3.6875,0.7500,0.40411376953125,-0.11590576171875,0.65716552734375,0.62561035156250,stop
62.07,3,0,0,0,1.1500,-1.7500,0.3600,36.8125,-8.7500,-1.5000,0.40502929687500,-0.11419677734375,0.65887451171875,0.62353515625000,stop
62.08,3,0,0,0,-0.1000,-1.1300,0.9900,50.6250,-29.0625,-6.6250,0.40759277343750,-0.11120605468750,0.66052246093750,0.62066650390625,stop
62.09,3,0,0,0,-4.3900,1.8600,1.3500,48.1875,-37.1875,-13.1250,0.41088867187500,-0.10821533203125,0.66168212890625,0.61773681640625,stop
62.10,3,0,0,0,-7.3800,4.4500,1.7400,30.3125,-26.0000,-18.5625,0.41369628906250,-0.10681152343750,0.66223144531250,0.61560058593750,stop
62.11,3,0,0,0,-9.7500,7.3500,2.1400,25.3125,-34.1875,-21.3125,0.41705322265625,-0.10528564453125,0.66210937500000,0.61364746093750,stop
62.12,3,0,0,0,-10.6100,10.3400,2.5500,31.4375,-46.3125,-16.0000,0.42083740234375,-0.10260009765625,0.66198730468750,0.61169433593750,stop
62.13,3,0,0,0,-7.0700,11.4800,2.3800,30.6250,-33.2500,-6.8125,0.42340087890625,-0.10009765625000,0.66229248046875,0.60992431640625,stop
62.14,3,0,0,0,-4.2100,7.4000,1.2700,13.5000,14.8125,6.3125,0.42236328125000,-0.10003662109375,0.66363525390625,0.60925292968750,stop
62.15,3,0,0,0,-2.1300,3.9000,1.4900,-2.7500,35.8750,9.0000,0.41973876953125,-0.10150146484375,0.66491699218750,0.60943603515625,stop
62.16,3,0,0,0,-0.1700,0.9500,0.9000,-5.0000,9.4375,11.8125,0.41851806640625,-0.10150146484375,0.66510009765625,0.61004638671875,stop
62.17,3,0,0,0,0.4500,0.6500,0.3200,-11.3125,4.0000,14.8125,0.41741943359375,-0.10131835937500,0.66473388671875,0.61126708984375,stop
62.18,3,0,0,0,0.9600,-0.1900,-0.1300,-22.8125,-0.1875,16.5625,0.41632080078125,-0.10113525390625,0.66369628906250,0.61315917968750,stop
62.19,3,0,0,0,1.8400,-1.6100,-0.1300,-32.5625,-11.9375,13.0625,0.41601562500000,-0.10095214843750,0.66162109375000,0.61566162109375,stop
62.20,3,0,0,0,3.5300,-4.5800,-0.6700,-39.5625,-17.1875,8.1250,0.41625976562500,-0.10101318359375,0.65893554687500,0.61834716796875,stop
62.21,3,0,0,0,4.0900,-5.1100,-1.2700,-42.3750,-10.0000,4.3750,0.41619873046875,-0.10174560546875,0.65631103515625,0.62103271484375,stop
62.22,3,0,0,0,4.4200,-5.5200,-1.6200,-42.0000,-3.5000,0.6875,0.41601562500000,-0.10302734375000,0.65386962890625,0.62353515625000,stop
62.23,3,0,0,0,4.6100,-5.8200,-1.5800,-38.1875,-1.6875,-3.0000,0.41589355468750,-0.10449218750000,0.65173339843750,0.62561035156250,stop
62.24,3,0,0,0,4.8300,-5.7300,-1.8900,-36.2500,7.6875,-5.3125,0.41546630859375,-0.10650634765625,0.64996337890625,0.62738037109375,stop
62.25,3,0,0,0,4.7500,-5.0700,-2.1100,-34.3125,20.8750,-5.2500,0.41424560546875,-0.10919189453125,0.64880371093750,0.62896728515625,stop
62.26,3,0,0,0,4.7800,-4.4700,-2.1100,-28.7500,27.3750,-3.0000,0.41253662109375,-0.11193847656250,0.64819335937500,0.63018798828125,moving
62.27,3,0,0,0,4.9700,-4.1700,-2.1300,-15.4375,20.6875,-0.6250,0.41125488281250,-0.11364746093750,0.64807128906250,0.63085937500000,moving
62.28,3,0,0,0,3.9400,-3.3400,-1.2100,3.4375,7.2500,-1.6250,0.41101074218750,-0.11401367187500,0.64849853515625,0.63049316406250,moving
62.28,3,0,0,0,3.9400,-3.3400,-1.2100,3.4375,7.2500,-1.6250,0.41101074218750,-0.11401367187500,0.64849853515625,0.63049316406250,moving
62.29,3,0,0,0,3.2300,-3.1400,-0.9800,16.4375,-1.3125,-2.9375,0.41137695312500,-0.11352539062500,0.64935302734375,0.62945556640625,moving
62.30,3,0,0,0,2.3300,-2.5200,-0.5700,23.8125,-5.3125,-4.0000,0.41217041015625,-0.11260986328125,0.65039062500000,0.62805175781250,moving
62.31,3,0,0,0,1.0600,-1.6100,-0.1500,28.8750,-14.2500,-4.3125,0.41345214843750,-0.11102294921875,0.65142822265625,0.62640380859375,moving
62.32,3,0,0,0,-3.7000,2.0400,0.3500,29.1250,-18.9375,-5.5000,0.41516113281250,-0.10925292968750,0.65228271484375,0.62469482421875,moving
62.33,3,0,0,0,-7.1000,4.9200,0.7800,20.5000,-12.2500,-7.0625,0.41644287109375,-0.10827636718750,0.65289306640625,0.62341308593750,moving
62.34,3,0,0,0,-10.3300,7.9100,1.6500,16.6250,-17.0625,-9.0625,0.41802978515625,-0.10723876953125,0.65307617187500,0.62225341796875,moving
62.35,3,0,0,0,-10.1000,11.6500,2.8900,24.5625,-25.8750,-7.0000,0.42010498046875,-0.10534667968750,0.65344238281250,0.62084960937500,moving
62.36,3,0,0,0,-6.9900,9.1600,2.2900,35.1875,-15.3125,-0.9375,0.42138671875000,-0.10327148437500,0.65472412109375,0.61895751953125,moving
62.37,3,0,0,0,-4.1900,5.1900,2.1500,48.0625,4.7500,6.8750,0.42114257812500,-0.10137939453125,0.65759277343750,0.61639404296875,moving
62.38,3,0,0,0,-1.7200,2.7700,2.6300,49.6250,-4.3750,17.1875,0.42089843750000,-0.09832763671875,0.66021728515625,0.61419677734375,moving
62.39,3,0,0,0,0.3000,0.1600,0.6600,29.5000,6.3750,18.6250,0.41979980468750,-0.09649658203125,0.66223144531250,0.61315917968750,moving
62.40,3,0,0,0,0.9200,-0.0900,0.2000,6.1250,20.1875,13.6875,0.41796875000000,-0.09655761718750,0.66339111328125,0.61309814453125,moving
62.41,3,0,0,0,1.3600,-0.9600,0.4200,-15.8125,-1.2500,8.0000,0.41748046875000,-0.09661865234375,0.66253662109375,0.61431884765625,moving
62.42,3,0,0,0,2.0900,-2.2600,0.4400,-36.6250,-25.5625,2.0625,0.41851806640625,-0.09649658203125,0.65966796875000,0.61676025390625,moving
62.43,3,0,0,0,3.7700,-4.7300,-0.9300,-49.4375,-23.6250,-1.4375,0.41955566406250,-0.09710693359375,0.65612792968750,0.61975097656250,moving
62.44,3,0,0,0,4.4100,-4.9400,-1.6500,-50.8750,-12.8750,-5.2500,0.42010498046875,-0.09857177734375,0.65283203125000,0.62255859375000,moving
62.45,3,0,0,0,4.3900,-4.9300,-2.1500,-53.5000,-1.7500,-8.5625,0.42022705078125,-0.10089111328125,0.64978027343750,0.62530517578125,moving
62.46,3,0,0,0,4.5600,-5.2100,-2.1200,-52.4375,5.5625,-9.0000,0.41992187500000,-0.10363769531250,0.64703369140625,0.62786865234375,moving
62.47,3,0,0,0,4.5400,-4.9300,-2.2700,-44.0000,15.3125,-7.3125,0.41906738281250,-0.10650634765625,0.64514160156250,0.62994384765625,moving
62.48,3,0,0,0,4.4200,-4.3800,-2.4600,-34.3750,25.7500,-4.6875,0.41754150390625,-0.10943603515625,0.64410400390625,0.63146972656250,moving
62.49,3,0,0,0,4.1700,-3.7400,-2.2600,-19.1250,21.7500,-1.5625,0.41625976562500,-0.11145019531250,0.64385986328125,0.63226318359375,moving
62.50,3,0,0,0,2.7000,-2.4200,-1.2900,-0.6875,13.0625,0.7500,0.41546630859375,-0.11212158203125,0.64428710937500,0.63220214843750,moving
62.51,3,0,0,0,1.6500,-1.6600,-0.7400,12.8750,7.3125,-1.6875,0.41528320312500,-0.11218261718750,0.64526367187500,0.63134765625000,moving
62.52,3,0,0,0,0.1500,-0.5000,0.0500,24.5000,0.9375,-4.2500,0.41571044921875,-0.11157226562500,0.64660644531250,0.62982177734375,moving
62.53,3,0,0,0,-2.1300,1.5500,0.8400,37.5625,-8.5625,-5.7500,0.41687011718750,-0.11010742187500,0.64831542968750,0.62756347656250,moving
62.54,3,0,0,0,-6.9400,5.8900,1.3100,39.8125,-3.4375,-6.0000,0.41778564453125,-0.10876464843750,0.65026855468750,0.62512207031250,moving
62.54,3,0,0,0,-6.9400,5.8900,1.3100,39.8125,-3.4375,-6.0000,0.41778564453125,-0.10876464843750,0.65026855468750,0.62512207031250,moving
62.55,3,0,0,0,-9.1100,8.5600,1.5400,39.3125,-2.8750,-1.8750,0.41839599609375,-0.10729980468750,0.65234375000000,0.62280273437500,moving
62.56,3,0,0,0,-9.2400,9.4400,1.6900,45.3750,-4.7500,1.6875,0.41900634765625,-0.10528564453125,0.65460205078125,0.62036132812500,moving
62.57,3,0,0,0,-7.0700,7.1700,1.7700,39.6875,-2.7500,1.2500,0.41943359375000,-0.10363769531250,0.65667724609375,0.61816406250000,moving
62.58,3,0,0,0,-2.9700,2.2600,2.5300,31.3750,-9.1875,3.0625,0.42010498046875,-0.10180664062500,0.65808105468750,0.61651611328125,moving
62.59,3,0,0,0,-1.8100,1.1300,1.5800,14.3125,-11.8125,6.5625,0.42053222656250,-0.10028076171875,0.65844726562500,0.61608886718750,moving
62.60,3,0,0,0,-0.7200,0.7300,0.7900,-11.5625,-0.1250,4.4375,0.42022705078125,-0.10040283203125,0.65783691406250,0.61688232421875,moving
62.61,3,0,0,0,0.0500,0.5900,0.6500,-32.5000,-1.6875,0.0625,0.42004394531250,-0.10150146484375,0.65606689453125,0.61877441406250,moving
62.62,3,0,0,0,1.1500,-0.6500,0.3900,-46.3125,-14.0625,-2.4375,0.42053222656250,-0.10260009765625,0.65301513671875,0.62145996093750,moving
62.63,3,0,0,0,1.9100,-1.7300,-0.4400,-54.3125,-14.4375,-2.6250,0.42102050781250,-0.10394287109375,0.64947509765625,0.62457275390625,moving
62.64,3,0,0,0,2.6700,-2.8800,-1.2900,-56.5000,-2.5000,-1.0000,0.42071533203125,-0.10595703125000,0.64630126953125,0.62774658203125,moving
62.65,3,0,0,0,3.0200,-3.2200,-1.8900,-56.0000,2.6250,-0.8125,0.42010498046875,-0.10821533203125,0.64331054687500,0.63085937500000,moving
62.66,3,0,0,0,3.8800,-4.5000,-2.2200,-47.5000,2.1250,-2.8750,0.41967773437500,-0.11022949218750,0.64074707031250,0.63336181640625,moving
62.67,3,0,0,0,3.9300,-4.4700,-2.0600,-38.6250,1.8125,-2.8125,0.41937255859375,-0.11193847656250,0.63867187500000,0.63537597656250,moving
62.68,3,0,0,0,4.0700,-4.3200,-2.4400,-32.0000,10.1250,-2.7500,0.41864013671875,-0.11383056640625,0.63720703125000,0.63696289062500,moving
62.69,3,0,0,0,4.3300,-4.0800,-2.3800,-20.8125,16.6875,-2.6875,0.41766357421875,-0.11566162109375,0.63665771484375,0.63787841796875,moving
62.70,3,0,0,0,4.4500,-4.1700,-2.1100,-10.3125,11.6250,-2.6250,0.41705322265625,-0.11682128906250,0.63647460937500,0.63824462890625,moving
62.71,3,0,0,0,4.6000,-4.2900,-1.7400,0.5000,5.1875,-3.5625,0.41699218750000,-0.11730957031250,0.63659667968750,0.63806152343750,moving
62.72,3,0,0,0,4.6000,-4.3100,-1.3900,7.1250,3.0625,-3.7500,0.41705322265625,-0.11743164062500,0.63708496093750,0.63745117187500,moving
62.73,3,0,0,0,4.0100,-3.8100,-0.9100,9.8750,3.1875,-3.5000,0.41717529296875,-0.11749267578125,0.63775634765625,0.63671875000000,moving
62.74,3,0,0,0,3.1700,-3.0800,-0.8000,10.0000,3.1250,-2.8125,0.41729736328125,-0.11743164062500,0.63836669921875,0.63604736328125,moving
62.75,3,0,0,0,1.8200,-2.0900,-0.6800,7.3750,4.5000,-3.2500,0.41729736328125,-0.11761474609375,0.63891601562500,0.63543701171875,moving
62.76,3,0,0,0,0.2900,-1.1400,-0.2100,2.5625,8.5000,-5.2500,0.41711425781250,-0.11828613281250,0.63934326171875,0.63500976562500,moving
62.77,3,0,0,0,-5.8300,4.3700,-0.0100,5.3125,11.3125,-4.5625,0.41680908203125,-0.11895751953125,0.64001464843750,0.63446044921875,moving
62.78,3,0,0,0,-9.3600,7.9400,0.2800,30.0000,12.6250,-2.1250,0.41650390625000,-0.11871337890625,0.64208984375000,0.63256835937500,moving
62.79,3,0,0,0,-11.8200,11.3100,0.5600,37.0000,8.8125,0.5000,0.41638183593750,-0.11785888671875,0.64447021484375,0.63037109375000,moving
62.80,3,0,0,0,-11.9500,13.2600,0.7600,45.4375,8.0625,5.7500,0.41607666015625,-0.11633300781250,0.64733886718750,0.62792968750000,moving
62.80,3,0,0,0,-11.9500,13.2600,0.7600,45.4375,8.0625,5.7500,0.41607666015625,-0.11633300781250,0.64733886718750,0.62792968750000,moving
62.81,3,0,0,0,-5.2000,6.6000,2.4900,64.7500,1.4375,8.2500,0.41619873046875,-0.11358642578125,0.65100097656250,0.62457275390625,moving
62.82,3,0,0,0,-2.8800,3.4800,2.4800,72.0000,-13.3750,10.6875,0.41705322265625,-0.10961914062500,0.65454101562500,0.62097167968750,moving
62.83,3,0,0,0,-1.4600,2.0600,1.8200,50.3125,-3.0000,11.6875,0.41711425781250,-0.10699462890625,0.65728759765625,0.61853027343750,moving
62.84,3,0,0,0,-0.9300,1.5700,1.3900,21.5000,10.6875,10.0000,0.41613769531250,-0.10620117187500,0.65893554687500,0.61755371093750,moving
62.85,3,0,0,0,-0.6400,0.9300,1.5500,-4.5000,6.0625,6.8750,0.41534423828125,-0.10632324218750,0.65893554687500,0.61798095703125,moving
62.86,3,0,0,0,-0.1300,-0.0600,0.8600,-24.0000,-2.6250,4.4375,0.41503906250000,-0.10675048828125,0.65759277343750,0.61956787109375,moving
62.87,3,0,0,0,0.6900,-1.2400,0.1000,-38.1875,-3.3125,3.3125,0.41473388671875,-0.10778808593750,0.65545654296875,0.62188720703125,moving
62.88,3,0,0,0,2.8900,-3.7000,-1.1100,-45.3125,-2.0625,1.4375,0.41430664062500,-0.10925292968750,0.65295410156250,0.62457275390625,moving
62.89,3,0,0,0,3.8500,-5.0900,-1.3900,-43.5000,-6.1875,-1.4375,0.41430664062500,-0.11053466796875,0.65032958984375,0.62701416015625,moving
62.90,3,0,0,0,4.0900,-5.2800,-1.4200,-39.3125,-5.6875,-4.6250,0.41455078125000,-0.11193847656250,0.64794921875000,0.62915039062500,moving
62.91,3,0,0,0,4.4100,-5.4600,-1.4700,-36.1875,-1.0625,-7.6250,0.41467285156250,-0.11358642578125,0.64581298828125,0.63092041015625,moving
62.92,3,0,0,0,5.2500,-5.2200,-1.5000,-24.1875,2.9375,-8.1875,0.41467285156250,-0.11511230468750,0.64453125000000,0.63195800781250,moving
62.93,3,0,0,0,5.5100,-5.0000,-1.2900,-12.0625,2.6875,-7.8750,0.41485595703125,-0.11614990234375,0.64385986328125,0.63232421875000,moving
62.94,3,0,0,0,5.5300,-4.7500,-1.2800,-1.4375,2.8125,-7.1250,0.41510009765625,-0.11676025390625,0.64379882812500,0.63214111328125,moving
62.95,3,0,0,0,5.3800,-4.6700,-1.1300,6.0000,5.9375,-6.1250,0.41516113281250,-0.11724853515625,0.64428710937500,0.63146972656250,moving
62.96,3,0,0,0,5.0100,-4.5100,-0.3900,13.7500,4.0000,-5.1250,0.41534423828125,-0.11724853515625,0.64514160156250,0.63049316406250,moving
62.97,3,0,0,0,4.7100,-4.3700,-0.1500,17.9375,0.5625,-3.6250,0.41571044921875,-0.11682128906250,0.64611816406250,0.62933349609375,moving
62.98,3,0,0,0,4.1800,-4.0400,-0.2100,17.2500,-1.5625,-2.3125,0.41607666015625,-0.11627197265625,0.64703369140625,0.62829589843750,moving
62.99,3,0,0,0,2.9700,-3.4400,-0.4500,10.6875,-0.9375,-2.9375,0.41638183593750,-0.11596679687500,0.64752197265625,0.62756347656250,moving
63.00,3,0,0,0,-0.0900,-0.9600,-0.4900,1.6875,-0.7500,-6.8125,0.41687011718750,-0.11627197265625,0.64752197265625,0.62725830078125,moving
63.01,3,0,0,0,-3.1900,1.5500,-0.4600,-7.1875,-1.3125,-8.7500,0.41735839843750,-0.11694335937500,0.64697265625000,0.62731933593750,moving
63.02,3,0,0,0,-7.5800,5.1800,-0.1500,-0.4375,-8.6875,-10.0625,0.41839599609375,-0.11706542968750,0.64660644531250,0.62707519531250,moving
63.03,3,0,0,0,-13.7100,12.3700,1.4500,0.5000,-17.9375,-12.3125,0.42004394531250,-0.11676025390625,0.64581298828125,0.62677001953125,moving
63.04,3,0,0,0,-11.8000,13.6100,1.4700,12.6250,-29.2500,-9.0625,0.42230224609375,-0.11523437500000,0.64532470703125,0.62603759765625,moving
63.05,3,0,0,0,-8.2900,11.1800,0.7200,42.9375,-20.5000,-2.3125,0.42401123046875,-0.11260986328125,0.64691162109375,0.62371826171875,moving
63.06,3,0,0,0,-4.7900,7.5200,1.5700,74.9375,-9.2500,7.4375,0.42486572265625,-0.10894775390625,0.65069580078125,0.61981201171875,moving
63.07,3,0,0,0,-4.7900,7.5200,1.5700,74.9375,-9.2500,7.4375,0.42486572265625,-0.10894775390625,0.65069580078125,0.61981201171875,moving
63.07,3,0,0,0,-0.6100,1.6400,2.9900,80.5625,-15.1250,17.6875,0.42553710937500,-0.10412597656250,0.65466308593750,0.61602783203125,moving
63.08,3,0,0,0,-0.2300,1.3500,2.6800,60.0000,3.2500,17.2500,0.42498779296875,-0.10107421875000,0.65814208984375,0.61322021484375,moving
63.09,3,0,0,0,-0.1700,1.4000,2.2300,20.9375,17.3125,12.3125,0.42346191406250,-0.10052490234375,0.66003417968750,0.61230468750000,moving
63.10,3,0,0,0,0.1900,0.7900,2.0300,-15.1250,7.7500,7.1250,0.42254638671875,-0.10107421875000,0.65954589843750,0.61340332031250,moving
63.11,3,0,0,0,1.9100,-2.0500,0.1200,-45.4375,-9.0625,3.1250,0.42248535156250,-0.10211181640625,0.65679931640625,0.61621093750000,moving
63.12,3,0,0,0,3.0100,-3.6500,-1.0000,-69.0625,-11.2500,-0.6250,0.42254638671875,-0.10406494140625,0.65264892578125,0.62023925781250,moving
63.13,3,0,0,0,4.0000,-4.6000,-1.5800,-75.5000,-7.6250,-6.3125,0.42260742187500,-0.10681152343750,0.64819335937500,0.62432861328125,moving
63.14,3,0,0,0,4.1800,-4.8300,-2.2600,-77.6875,-7.5000,-9.0000,0.42279052734375,-0.10974121093750,0.64361572265625,0.62847900390625,moving
63.15,3,0,0,0,5.0700,-5.4500,-2.6400,-71.1875,-1.2500,-9.1250,0.42266845703125,-0.11285400390625,0.63958740234375,0.63214111328125,moving
63.16,3,0,0,0,5.3500,-5.5000,-3.0200,-57.1875,9.8125,-7.6250,0.42199707031250,-0.11590576171875,0.63665771484375,0.63494873046875,moving
63.17,3,0,0,0,5.2500,-4.8500,-3.2400,-40.5625,19.8750,-5.3125,0.42077636718750,-0.11877441406250,0.63513183593750,0.63677978515625,moving
63.18,3,0,0,0,5.0100,-4.1800,-2.5800,-16.1250,16.0000,-2.9375,0.41986083984375,-0.12042236328125,0.63476562500000,0.63739013671875,moving
63.19,3,0,0,0,4.8200,-4.0800,-1.9600,11.4375,3.1250,-0.8750,0.41986083984375,-0.12023925781250,0.63549804687500,0.63665771484375,moving
63.20,3,0,0,0,4.6300,-4.0600,-0.8600,29.3125,-6.0625,-1.1875,0.42059326171875,-0.11889648437500,0.63690185546875,0.63507080078125,moving
63.21,3,0,0,0,4.4200,-3.9100,-0.3600,39.9375,-6.7500,-1.7500,0.42144775390625,-0.11718750000000,0.63885498046875,0.63287353515625,moving
63.22,3,0,0,0,3.9800,-3.6700,0.7000,45.8750,-2.8750,-0.3125,0.42205810546875,-0.11529541015625,0.64129638671875,0.63031005859375,moving
63.23,3,0,0,0,3.2100,-3.4500,0.8400,49.6875,-9.6250,0.8750,0.42309570312500,-0.11291503906250,0.64367675781250,0.62768554687500,moving
63.24,3,0,0,0,2.7500,-2.9500,0.9300,41.9375,-14.4375,-1.1875,0.42437744140625,-0.11059570312500,0.64544677734375,0.62536621093750,moving
63.25,3,0,0,0,1.1500,-1.9800,0.1300,12.8125,-9.5000,-1.8750,0.42510986328125,-0.10974121093750,0.64575195312500,0.62469482421875,moving
63.26,3,0,0,0,-4.3900,2.1000,0.3500,-4.7500,-7.1250,-2.6250,0.42559814453125,-0.10968017578125,0.64520263671875,0.62493896484375,moving
63.27,3,0,0,0,-9.5400,7.0900,0.6800,-12.2500,-3.3750,-2.8750,0.42584228515625,-0.11010742187500,0.64440917968750,0.62554931640625,moving
63.28,3,0,0,0,-14.7100,12.6400,1.2700,0.1250,-13.2500,-1.5000,0.42669677734375,-0.10949707031250,0.64385986328125,0.62561035156250,moving
63.29,3,0,0,0,-16.3900,17.0700,2.4200,20.9375,-28.4375,0.8750,0.42840576171875,-0.10711669921875,0.64398193359375,0.62475585937500,moving
63.30,3,0,0,0,-9.5900,12.0400,2.9600,53.2500,-27.9375,4.2500,0.43023681640625,-0.10333251953125,0.64587402343750,0.62213134765625,moving
63.31,3,0,0,0,-4.8000,6.0400,4.1500,93.0625,-23.6250,7.8750,0.43200683593750,-0.09814453125000,0.65008544921875,0.61737060546875,moving
63.32,3,0,0,0,-1.8200,1.2500,4.7000,85.5000,-18.0625,19.0625,0.43267822265625,-0.09283447265625,0.65411376953125,0.61340332031250,moving
63.32,3,0,0,0,-1.8200,1.2500,4.7000,85.5000,-18.0625,19.0625,0.43267822265625,-0.09283447265625,0.65411376953125,0.61340332031250,moving
63.33,3,0,0,0,-0.8200,-0.2100,3.8700,46.2500,4.1250,20.0625,0.43176269531250,-0.09014892578125,0.65692138671875,0.61151123046875,moving
63.34,3,0,0,0,0.5500,-0.5000,2.0900,-2.0625,16.0000,16.8750,0.42993164062500,-0.09014892578125,0.65753173828125,0.61212158203125,moving
63.35,3,0,0,0,1.4400,-1.8400,1.1700,-42.6250,-3.5625,10.5000,0.42926025390625,-0.09094238281250,0.65521240234375,0.61499023437500,moving
63.36,3,0,0,0,2.7400,-3.2300,0.1100,-72.0625,-29.1250,0.1875,0.43029785156250,-0.09204101562500,0.65020751953125,0.61932373046875,moving
63.37,3,0,0,0,5.4300,-5.4200,-2.2600,-79.9375,-31.6250,-11.5625,0.43206787109375,-0.09399414062500,0.64459228515625,0.62365722656250,moving
63.38,3,0,0,0,6.5100,-6.8200,-2.8900,-83.0000,-11.1250,-20.1875,0.43310546875000,-0.09765625000000,0.63946533203125,0.62762451171875,moving
63.39,3,0,0,0,6.3400,-6.0900,-3.7100,-90.4375,12.5625,-24.4375,0.43298339843750,-0.10314941406250,0.63476562500000,0.63165283203125,moving
63.40,3,0,0,0,6.5300,-6.1200,-3.7000,-100.1250,13.6875,-22.6250,0.43255615234375,-0.10894775390625,0.62951660156250,0.63616943359375,moving
63.41,3,0,0,0,6.9300,-5.6200,-4.1800,-86.5000,11.9375,-18.6250,0.43212890625000,-0.11389160156250,0.62500000000000,0.64007568359375,moving
63.42,3,0,0,0,6.5000,-4.7100,-4.8700,-58.2500,30.6250,-13.2500,0.43060302734375,-0.11853027343750,0.62274169921875,0.64245605468750,moving
63.43,3,0,0,0,6.2000,-4.0800,-4.9300,-32.5625,50.0625,-7.7500,0.42797851562500,-0.12298583984375,0.62268066406250,0.64343261718750,moving
63.44,3,0,0,0,5.7700,-3.8700,-4.6000,-15.3125,49.1250,-3.8750,0.42535400390625,-0.12652587890625,0.62365722656250,0.64355468750000,moving
63.45,3,0,0,0,4.4600,-3.3700,-2.9700,-0.3750,36.1250,-2.7500,0.42352294921875,-0.12866210937500,0.62493896484375,0.64306640625000,moving
63.46,3,0,0,0,3.3800,-3.0900,-1.9500,21.0625,22.5625,-2.5625,0.42266845703125,-0.12933349609375,0.62695312500000,0.64154052734375,moving
63.47,3,0,0,0,2.7700,-2.4000,-0.5300,50.1250,12.0000,-1.3125,0.42260742187500,-0.12817382812500,0.63018798828125,0.63861083984375,moving
63.48,3,0,0,0,1.5500,-1.9300,0.5800,76.5000,3.3750,3.0625,0.42309570312500,-0.12536621093750,0.63458251953125,0.63446044921875,moving
63.49,3,0,0,0,-2.5800,0.8300,1.7200,106.1875,-10.1875,8.2500,0.42437744140625,-0.12042236328125,0.64013671875000,0.62896728515625,moving
63.50,3,0,0,0,-6.1900,3.3900,2.9300,128.6875,-21.8750,10.6250,0.42633056640625,-0.11389160156250,0.64648437500000,0.62237548828125,moving
63.51,3,0,0,0,-11.6200,7.6100,4.4300,132.7500,-25.0625,12.6250,0.42834472656250,-0.10687255859375,0.65283203125000,0.61553955078125,moving
63.52,3,0,0,0,-19.3900,16.0600,7.3100,137.7500,-24.2500,19.1875,0.42993164062500,-0.09930419921875,0.65948486328125,0.60858154296875,moving
63.53,3,0,0,0,-16.0500,13.7100,6.8100,134.4375,-31.7500,18.1875,0.43194580078125,-0.09155273437500,0.66552734375000,0.60180664062500,moving
63.54,3,0,0,0,-9.3100,8.9300,5.7000,73.4375,-28.5000,4.5000,0.43395996093750,-0.08697509765625,0.66833496093750,0.59790039062500,moving
63.55,3,0,0,0,-4.4600,5.0200,4.5100,-27.3125,-36.7500,-7.3125,0.43627929687500,-0.08654785156250,0.66540527343750,0.59948730468750,moving
63.56,3,0,0,0,0.0600,2.3900,0.1900,-83.7500,-30.7500,-11.1875,0.43798828125000,-0.08880615234375,0.65979003906250,0.60412597656250,moving
63.57,3,0,0,0,0.8100,2.3300,-0.4100,-94.5000,-13.2500,-7.4375,0.43841552734375,-0.09210205078125,0.65417480468750,0.60937500000000,moving
63.58,3,0,0,0,1.2900,1.3500,-0.3300,-94.6250,-7.5000,-2.6250,0.43823242187500,-0.09552001953125,0.64880371093750,0.61474609375000,moving
63.59,3,0,0,0,1.2900,1.3500,-0.3300,-94.6250,-7.5000,-2.6250,0.43823242187500,-0.09552001953125,0.64880371093750,0.61474609375000,moving
63.59,3,0,0,0,1.0600,-1.7100,-1.0600,-75.3125,-18.8750,-8.7500,0.43908691406250,-0.09783935546875,0.64392089843750,0.61883544921875,moving
63.60,3,0,0,0,3.8400,-3.9500,-2.6000,-75.3125,-18.8750,-8.7500,0.44000244140625,-0.10021972656250,0.63903808593750,0.62286376953125,moving
63.61,3,0,0,0,4.6900,-5.0500,-3.2400,-78.8125,-5.8125,-9.5625,0.44018554687500,-0.10345458984375,0.63446044921875,0.62695312500000,moving
63.62,3,0,0,0,5.1900,-5.6700,-3.3400,-83.0625,4.1250,-14.0000,0.43994140625000,-0.10766601562500,0.62988281250000,0.63092041015625,moving
63.63,3,0,0,0,5.6800,-6.1200,-3.6600,-79.0625,14.0000,-15.3750,0.43927001953125,-0.11230468750000,0.62591552734375,0.63452148437500,moving
63.64,3,0,0,0,6.3300,-5.5700,-3.7500,-74.2500,22.9375,-13.5625,0.43804931640625,-0.11712646484375,0.62255859375000,0.63781738281250,moving
63.65,3,0,0,0,6.6100,-4.6800,-3.9200,-74.2500,22.9375,-13.5625,0.43676757812500,-0.12200927734375,0.61914062500000,0.64111328125000,moving
63.66,3,0,0,0,6.7500,-4.0900,-4.4600,-60.8750,36.6250,-8.0000,0.43457031250000,-0.12683105468750,0.61706542968750,0.64367675781250,moving
63.67,3,0,0,0,6.6800,-3.6000,-4.7600,-43.8750,52.5625,-1.8750,0.43139648437500,-0.13153076171875,0.61651611328125,0.64538574218750,moving
63.68,3,0,0,0,5.3100,-2.4800,-3.8000,5.8125,41.3125,0.3125,0.42919921875000,-0.13360595703125,0.61840820312500,0.64459228515625,moving
63.69,3,0,0,0,4.5200,-2.4100,-2.8200,34.3750,21.4375,0.1875,0.42846679687500,-0.13354492187500,0.62115478515625,0.64245605468750,moving
63.70,3,0,0,0,3.2600,-2.4300,-1.9600,60.1875,2.2500,2.9375,0.42883300781250,-0.13128662109375,0.62463378906250,0.63928222656250,moving
63.71,3,0,0,0,-0.5400,-0.7900,-0.8200,70.2500,-3.8750,2.3125,0.42968750000000,-0.12829589843750,0.62847900390625,0.63555908203125,moving
63.72,3,0,0,0,-3.5400,0.9600,-0.3600,78.1250,-10.5625,0.4375,0.43115234375000,-0.12475585937500,0.63238525390625,0.63134765625000,moving
63.73,3,0,0,0,-7.7100,3.6400,-0.1000,90.5625,-20.7500,1.2500,0.43316650390625,-0.12011718750000,0.63659667968750,0.62664794921875,moving
63.74,3,0,0,0,-11.9200,7.5600,0.3800,98.8125,-32.3125,3.3750,0.43579101562500,-0.11444091796875,0.64080810546875,0.62158203125000,moving
63.75,3,0,0,0,-11.8700,11.4800,2.5100,112.1875,-33.2500,6.6875,0.43841552734375,-0.10797119140625,0.64562988281250,0.61584472656250,moving
63.76,3,0,0,0,-6.6500,8.1800,3.3200,119.0625,-25.0625,9.1875,0.44042968750000,-0.10156250000000,0.65118408203125,0.60968017578125,moving
63.77,3,0,0,0,-3.1900,4.8900,4.0400,102.3125,-19.7500,10.7500,0.44183349609375,-0.09594726562500,0.65594482421875,0.60443115234375,moving
63.78,3,0,0,0,-1.7300,2.7700,3.7900,56.8750,-7.5000,6.3125,0.44238281250000,-0.09301757812500,0.65869140625000,0.60144042968750,moving
63.79,3,0,0,0,-0.0600,1.5500,2.5300,4.8750,8.1875,1.8125,0.44189453125000,-0.09313964843750,0.65930175781250,0.60119628906250,moving
63.80,3,0,0,0,0.6900,1.3800,1.9100,-28.4375,17.3750,1.0625,0.44055175781250,-0.09509277343750,0.65844726562500,0.60272216796875,moving
63.81,3,0,0,0,0.9600,0.7900,1.2000,-48.5000,22.6250,0.0000,0.43884277343750,-0.09814453125000,0.65679931640625,0.60528564453125,moving
63.82,3,0,0,0,1.0500,-0.8500,0.2500,-61.8125,20.5000,-0.6250,0.43719482421875,-0.10162353515625,0.65429687500000,0.60864257812500,moving
63.83,3,0,0,0,2.4300,-2.7500,-0.6200,-72.7500,9.9375,0.8125,0.43591308593750,-0.10491943359375,0.65081787109375,0.61273193359375,moving
63.84,3,0,0,0,3.0100,-3.7000,-1.0100,-68.3125,4.1250,1.8750,0.43493652343750,-0.10760498046875,0.64727783203125,0.61663818359375,moving
63.85,3,0,0,0,3.0100,-3.7000,-1.0100,-68.3125,4.1250,1.8750,0.43493652343750,-0.10760498046875,0.64727783203125,0.61663818359375,moving
63.85,3,0,0,0,3.4600,-4.4600,-1.4700,-62.5000,10.5625,1.0625,0.43371582031250,-0.11047363281250,0.64434814453125,0.62011718750000,moving
63.86,3,0,0,0,4.6400,-5.2100,-2.0600,-64.4375,14.4375,1.1250,0.43218994140625,-0.11364746093750,0.64141845703125,0.62359619140625,moving
63.87,3,0,0,0,4.8900,-5.3300,-2.3600,-56.8125,12.1250,0.4375,0.43096923828125,-0.11645507812500,0.63879394531250,0.62664794921875,moving
63.88,3,0,0,0,5.0100,-4.9700,-2.6600,-42.6875,13.0000,0.3125,0.42974853515625,-0.11877441406250,0.63690185546875,0.62890625000000,moving
63.89,3,0,0,0,4.9300,-4.5500,-3.0300,-26.9375,15.3125,1.3125,0.42858886718750,-0.12054443359375,0.63604736328125,0.63031005859375,moving
63.90,3,0,0,0,4.5700,-3.3800,-3.2700,-12.3125,17.1875,4.0000,0.42724609375000,-0.12170410156250,0.63604736328125,0.63092041015625,moving
63.91,3,0,0,0,4.5100,-3.1100,-3.1000,1.0625,16.6250,5.3125,0.42602539062500,-0.12231445312500,0.63677978515625,0.63092041015625,moving
63.92,3,0,0,0,4.2400,-3.2600,-2.6600,14.9375,13.5000,4.1875,0.42523193359375,-0.12225341796875,0.63818359375000,0.63006591796875,moving
63.93,3,0,0,0,4.0600,-3.4800,-2.0900,26.8125,9.5625,4.4375,0.42474365234375,-0.12152099609375,0.64007568359375,0.62866210937500,moving
63.94,3,0,0,0,3.8400,-4.0000,-0.6500,34.2500,6.5625,2.6250,0.42456054687500,-0.12048339843750,0.64221191406250,0.62677001953125,moving
63.95,3,0,0,0,4.0800,-4.0900,-0.6600,34.3125,6.2500,5.1250,0.42425537109375,-0.11926269531250,0.64440917968750,0.62493896484375,moving
63.96,3,0,0,0,4.0200,-3.9300,-0.3900,44.7500,1.3125,4.8125,0.42437744140625,-0.11743164062500,0.64691162109375,0.62255859375000,moving
63.97,3,0,0,0,3.9800,-3.7900,-0.1000,39.4375,3.1250,3.3125,0.42443847656250,-0.11590576171875,0.64923095703125,0.62042236328125,moving
63.98,3,0,0,0,3.2600,-2.6400,-0.2200,31.0000,-2.1875,2.5000,0.42474365234375,-0.11450195312500,0.65087890625000,0.61877441406250,moving
63.99,3,0,0,0,2.0500,-1.3700,0.0000,24.2500,-5.8125,2.3125,0.42517089843750,-0.11315917968750,0.65197753906250,0.61755371093750,moving
64.00,3,0,0,0,-0.2600,0.2600,-0.1300,20.9375,-0.5625,3.6250,0.42517089843750,-0.11212158203125,0.65313720703125,0.61651611328125,moving
64.01,3,0,0,0,-4.3600,2.7700,-0.2500,30.8750,-7.8125,5.7500,0.42559814453125,-0.11022949218750,0.65454101562500,0.61499023437500,moving
64.02,3,0,0,0,-14.7300,12.3000,0.4400,36.1875,-30.9375,3.1875,0.42755126953125,-0.10705566406250,0.65539550781250,0.61334228515625,moving
64.03,3,0,0,0,-17.7100,17.5000,0.2500,25.5000,-37.3750,7.5000,0.42950439453125,-0.10369873046875,0.65545654296875,0.61248779296875,moving
64.04,3,0,0,0,-12.4300,15.4800,0.8700,40.9375,-5.2500,23.0000,0.42895507812500,-0.10052490234375,0.65765380859375,0.61108398437500,moving
64.05,3,0,0,0,-1.0100,1.4500,2.6700,104.3750,-10.2500,21.6250,0.42926025390625,-0.09484863281250,0.66296386718750,0.60595703125000,moving
64.06,3,0,0,0,0.3300,-1.8000,4.6300,126.3125,-29.9375,18.1875,0.43109130859375,-0.08746337890625,0.66864013671875,0.59954833984375,moving
64.07,3,0,0,0,0.2800,-2.8200,5.0400,99.7500,-15.2500,20.6875,0.43164062500000,-0.08172607421875,0.67346191406250,0.59454345703125,moving
64.08,3,0,0,0,-0.3200,-2.1100,6.2800,67.6250,2.5625,18.6875,0.43096923828125,-0.07818603515625,0.67718505859375,0.59124755859375,moving
64.09,3,0,0,0,-0.3500,-0.7400,3.4300,16.6250,43.0625,13.3125,0.42785644531250,-0.07897949218750,0.67974853515625,0.59045410156250,moving
64.10,3,0,0,0,-0.2400,0.0400,1.5700,-29.8125,57.9375,7.2500,0.42382812500000,-0.08264160156250,0.68041992187500,0.59210205078125,moving
64.11,3,0,0,0,-0.2400,0.0400,1.5700,-29.8125,57.9375,7.2500,0.42382812500000,-0.08264160156250,0.68041992187500,0.59210205078125,moving
64.11,3,0,0,0,-0.0200,0.3900,1.1900,-56.0625,43.6875,2.7500,0.42065429687500,-0.08685302734375,0.67913818359375,0.59521484375000,moving
64.12,3,0,0,0,-0.3300,0.7800,-0.5900,-64.6250,22.4375,-0.3125,0.41888427734375,-0.09039306640625,0.67657470703125,0.59887695312500,moving
64.13,3,0,0,0,-0.1000,1.2600,-1.1100,-54.1250,-14.3750,-2.1875,0.41937255859375,-0.09173583984375,0.67315673828125,0.60211181640625,moving
64.14,3,0,0,0,-0.4700,1.5400,-0.5500,-42.9375,-26.3750,-3.5000,0.42077636718750,-0.09210205078125,0.66992187500000,0.60467529296875,moving
64.15,3,0,0,0,-0.5000,1.2800,-1.0300,-44.6250,-1.3125,-1.8125,0.42059326171875,-0.09381103515625,0.66748046875000,0.60723876953125,moving
64.16,3,0,0,0,0.3200,0.6700,-1.1500,-33.8125,10.3125,1.6250,0.41961669921875,-0.09552001953125,0.66607666015625,0.60919189453125,moving
64.17,3,0,0,0,2.4800,-0.5500,-1.0300,-13.8750,8.0625,4.8750,0.41876220703125,-0.09613037109375,0.66564941406250,0.61010742187500,moving
64.18,3,0,0,0,2.8200,-1.3100,-0.7400,0.6875,2.8750,4.6250,0.41839599609375,-0.09600830078125,0.66583251953125,0.61022949218750,moving
64.19,3,0,0,0,2.3100,-1.8500,-0.1800,10.7500,-3.8125,5.2500,0.41839599609375,-0.09509277343750,0.66632080078125,0.60980224609375,moving
64.20,3,0,0,0,1.0800,-1.8000,0.8900,15.8750,-7.1250,7.1875,0.41857910156250,-0.09375000000000,0.66699218750000,0.60925292968750,moving
64.21,3,0,0,0,0.6000,-1.6700,1.0900,14.1250,-4.9375,6.5000,0.41864013671875,-0.09259033203125,0.66760253906250,0.60870361328125,moving
64.22,3,0,0,0,0.1800,-1.7000,0.7500,6.0625,0.0000,3.2500,0.41851806640625,-0.09216308593750,0.66796875000000,0.60845947265625,moving
64.23,3,0,0,0,-0.0800,-1.4500,0.7700,-8.5000,5.0000,0.0000,0.41815185546875,-0.09271240234375,0.66766357421875,0.60888671875000,moving
64.24,3,0,0,0,-0.3500,-0.7700,0.0700,-16.5000,5.7500,0.0000,0.41766357421875,-0.09362792968750,0.66699218750000,0.60980224609375,moving
64.25,3,0,0,0,-0.3200,-0.4500,0.0600,-20.1250,5.5625,-0.4375,0.41717529296875,-0.09466552734375,0.66613769531250,0.61096191406250,moving
64.26,3,0,0,0,0.0400,-0.1500,-0.6600,-22.9375,6.7500,-0.3125,0.41662597656250,-0.09588623046875,0.66516113281250,0.61224365234375,stop
64.27,3,0,0,0,0.4100,0.1300,-0.9800,-13.8125,0.9375,0.5625,0.41638183593750,-0.09637451171875,0.66442871093750,0.61303710937500,stop
64.28,3,0,0,0,0.6300,0.5700,-1.3000,-4.0000,3.0625,3.3750,0.41601562500000,-0.09649658203125,0.66436767578125,0.61340332031250,stop
64.29,3,0,0,0,0.5000,0.2800,-1.1700,10.8125,2.5000,5.6875,0.41564941406250,-0.09588623046875,0.66510009765625,0.61297607421875,stop
64.30,3,0,0,0,0.0600,-0.1400,-0.6100,26.0625,-5.0625,6.7500,0.41583251953125,-0.09429931640625,0.66632080078125,0.61169433593750,stop
64.31,3,0,0,0,-0.2300,-0.4500,0.0600,33.5625,-8.0000,6.3750,0.41619873046875,-0.09228515625000,0.66790771484375,0.61004638671875,stop
64.32,3,0,0,0,-0.5200,-0.5600,0.9300,31.7500,-6.3125,5.3125,0.41656494140625,-0.09045410156250,0.66937255859375,0.60845947265625,stop
64.33,3,0,0,0,-0.6400,-0.4800,1.3700,22.9375,-4.7500,3.0625,0.41687011718750,-0.08923339843750,0.67047119140625,0.60729980468750,stop
64.34,3,0,0,0,-0.6800,-0.4500,1.6000,7.9375,0.1875,0.9375,0.41687011718750,-0.08886718750000,0.67089843750000,0.60681152343750,stop
64.35,3,0,0,0,-0.5800,-0.3700,1.3900,-6.7500,3.2500,-0.6250,0.41662597656250,-0.08935546875000,0.67065429687500,0.60717773437500,stop
64.36,3,0,0,0,-0.5800,-0.3700,1.3900,-6.7500,3.2500,-0.6250,0.41662597656250,-0.08935546875000,0.67065429687500,0.60717773437500,stop
64.36,3,0,0,0,-0.1900,-0.1600,0.6000,-18.4375,2.4375,-1.6250,0.41644287109375,-0.09020996093750,0.66973876953125,0.60821533203125,stop
64.37,3,0,0,0,-0.0600,-0.0500,0.0000,-23.9375,2.7500,-2.3125,0.41619873046875,-0.09136962890625,0.66851806640625,0.60949707031250,stop
64.38,3,0,0,0,0.1100,0.0900,-0.4100,-22.1250,-0.6250,-2.2500,0.41619873046875,-0.09228515625000,0.66729736328125,0.61071777343750,stop
64.39,3,0,0,0,0.2700,0.0000,-0.7800,-16.3125,-3.6875,-2.0000,0.41638183593750,-0.09277343750000,0.66625976562500,0.61163330078125,stop
64.40,3,0,0,0,0.3700,-0.1900,-0.8600,-6.8750,-5.4375,-1.7500,0.41674804687500,-0.09289550781250,0.66571044921875,0.61199951171875,stop
64.41,3,0,0,0,0.3800,-0.2200,-0.6900,3.6250,-7.3125,-1.1250,0.41729736328125,-0.09240722656250,0.66558837890625,0.61181640625000,stop
64.42,3,0,0,0,0.3400,-0.2300,-0.3500,12.0625,-7.8750,-0.5000,0.41784667968750,-0.09155273437500,0.66595458984375,0.61114501953125,stop
64.43,3,0,0,0,0.0900,-0.4300,0.3700,17.3125,-8.2500,-0.5000,0.41845703125000,-0.09045410156250,0.66656494140625,0.61022949218750,stop
64.44,3,0,0,0,-0.0400,-0.3400,0.5200,18.0000,-6.5000,-0.7500,0.41906738281250,-0.08953857421875,0.66729736328125,0.60919189453125,stop
64.45,3,0,0,0,-0.1000,-0.4000,0.7500,13.3750,-4.0000,-1.1250,0.41943359375000,-0.08886718750000,0.66784667968750,0.60839843750000,stop
64.46,3,0,0,0,-0.1500,-0.3200,0.8400,8.0000,-2.8750,-1.2500,0.41973876953125,-0.08850097656250,0.66815185546875,0.60791015625000,stop
64.47,3,0,0,0,-0.0900,-0.2400,0.2800,0.0000,-2.6875,-1.8750,0.42004394531250,-0.08850097656250,0.66802978515625,0.60784912109375,stop
64.48,3,0,0,0,0.0300,-0.2400,-0.0500,-5.2500,-3.7500,-2.0000,0.42028808593750,-0.08856201171875,0.66760253906250,0.60815429687500,stop
64.49,3,0,0,0,0.1300,-0.2000,-0.3400,-6.0625,-4.1875,-1.8125,0.42059326171875,-0.08868408203125,0.66711425781250,0.60845947265625,stop
64.50,3,0,0,0,0.2300,-0.2000,-0.5000,-3.5625,-4.6875,-1.7500,0.42095947265625,-0.08868408203125,0.66668701171875,0.60864257812500,stop
64.51,3,0,0,0,0.3700,-0.2300,-0.4900,0.0000,-4.8750,-1.6875,0.42132568359375,-0.08850097656250,0.66650390625000,0.60858154296875,stop
64.52,3,0,0,0,0.4300,-0.2100,-0.3400,3.9375,-4.3750,-1.5625,0.42169189453125,-0.08825683593750,0.66656494140625,0.60833740234375,stop
64.53,3,0,0,0,0.4800,-0.1700,-0.1400,6.3750,-3.5000,-1.3125,0.42205810546875,-0.08789062500000,0.66674804687500,0.60797119140625,stop
64.54,3,0,0,0,0.5000,-0.1500,0.2100,6.4375,-2.6250,-1.1875,0.42230224609375,-0.08758544921875,0.66699218750000,0.60754394531250,stop
64.55,3,0,0,0,0.4500,-0.1600,0.1600,4.4375,-1.3125,-1.1875,0.42248535156250,-0.08746337890625,0.66717529296875,0.60723876953125,stop
64.56,3,0,0,0,0.3700,-0.1900,0.0600,2.2500,-0.4375,-1.1250,0.42254638671875,-0.08740234375000,0.66723632812500,0.60711669921875,stop
64.57,3,0,0,0,0.3200,-0.1900,-0.0100,1.0000,-0.1250,-1.1250,0.42260742187500,-0.08746337890625,0.66729736328125,0.60699462890625,stop
64.58,3,0,0,0,0.3000,-0.0500,-0.1400,-0.0625,0.5625,-1.2500,0.42266845703125,-0.08758544921875,0.66729736328125,0.60693359375000,stop
64.59,3,0,0,0,0.1500,0.1600,-0.1700,2.1875,0.5625,-0.7500,0.42266845703125,-0.08758544921875,0.66741943359375,0.60675048828125,stop
64.60,3,0,0,0,0.1500,0.1600,-0.1300,1.7500,1.3125,-0.8750,0.42266845703125,-0.08764648437500,0.66760253906250,0.60662841796875,stop
64.61,3,0,0,0,0.2300,0.2500,-0.0200,2.9375,0.8125,-0.5000,0.42266845703125,-0.08752441406250,0.66778564453125,0.60644531250000,stop
64.62,3,0,0,0,0.1000,0.0600,0.0100,3.8750,2.0000,-0.1875,0.42254638671875,-0.08752441406250,0.66802978515625,0.60620117187500,stop
64.63,3,0,0,0,0.0900,0.0000,0.0300,4.1875,1.6250,0.0625,0.42248535156250,-0.08746337890625,0.66833496093750,0.60595703125000,stop
64.64,3,0,0,0,0.0400,-0.1600,0.0000,4.5625,1.1250,0.6875,0.42083740234375,-0.08422851562500,0.66784667968750,0.60809326171875,stop
64.65,3,0,0,0,0.0400,-0.2500,0.0000,5.0625,1.1875,0.8750,0.42071533203125,-0.08404541015625,0.66815185546875,0.60784912109375,stop
64.66,3,0,0,0,0.0100,-0.3200,0.0200,4.7500,0.6875,1.0625,0.42065429687500,-0.08386230468750,0.66845703125000,0.60760498046875,stop
64.67,3,0,0,0,0.0400,-0.3100,0.1400,4.0625,0.4375,1.0625,0.42065429687500,-0.08361816406250,0.66870117187500,0.60742187500000,stop
64.68,3,0,0,0,0.0600,-0.2900,0.2000,3.1250,0.0625,1.0000,0.42059326171875,-0.08343505859375,0.66882324218750,0.60723876953125,stop
64.69,3,0,0,0,0.0900,-0.2900,0.2300,1.8125,-0.1875,0.8125,0.42059326171875,-0.08331298828125,0.66894531250000,0.60717773437500,stop
64.70,3,0,0,0,0.0600,-0.2800,0.2000,0.3125,-0.0625,0.6875,0.42065429687500,-0.08331298828125,0.66888427734375,0.60723876953125,stop
64.71,3,0,0,0,0.0700,-0.2900,0.1700,-0.4375,0.1875,0.5000,0.42071533203125,-0.08337402343750,0.66882324218750,0.60723876953125,stop
64.72,3,0,0,0,0.0400,-0.2700,0.1700,-1.1250,0.0000,0.4375,0.42077636718750,-0.08343505859375,0.66864013671875,0.60736083984375,stop
64.73,3,0,0,0,-0.0500,-0.2200,0.1900,-1.7500,0.4375,0.1875,0.42083740234375,-0.08355712890625,0.66845703125000,0.60748291015625,stop
64.74,3,0,0,0,-0.0600,-0.1900,0.1400,-2.8750,1.0625,0.0000,0.42083740234375,-0.08380126953125,0.66833496093750,0.60766601562500,stop
64.75,3,0,0,0,-0.0400,-0.1700,0.0800,-3.6875,1.5625,-0.1875,0.42077636718750,-0.08404541015625,0.66815185546875,0.60784912109375,stop
64.76,3,0,0,0,-0.0100,-0.1900,0.0000,-3.6250,1.8125,-0.1250,0.42065429687500,-0.08428955078125,0.66796875000000,0.60809326171875,stop
64.77,3,0,0,0,0.0300,-0.2200,-0.0400,-3.0000,1.4375,0.0000,0.42059326171875,-0.08453369140625,0.66784667968750,0.60821533203125,stop
64.78,3,0,0,0,0.0600,-0.2100,-0.0900,-2.0625,1.3125,0.0000,0.42047119140625,-0.08465576171875,0.66778564453125,0.60833740234375,stop
64.79,3,0,0,0,0.0700,-0.1900,-0.1100,-1.1250,1.0625,0.0000,0.42041015625000,-0.08477783203125,0.66778564453125,0.60839843750000,stop
64.80,3,0,0,0,0.0700,-0.1800,-0.0700,0.0000,1.0625,0.0625,0.42034912109375,-0.08489990234375,0.66784667968750,0.60833740234375,stop
64.81,3,0,0,0,0.0800,-0.1700,-0.0100,1.3125,0.8125,0.1250,0.42034912109375,-0.08489990234375,0.66790771484375,0.60827636718750,stop
64.82,3,0,0,0,0.0600,-0.1400,0.0800,2.3750,0.3125,0.1875,0.42034912109375,-0.08477783203125,0.66802978515625,0.60815429687500,stop
64.83,3,0,0,0,0.0500,-0.1500,0.1500,2.5625,0.4375,0.1250,0.42041015625000,-0.08471679687500,0.66815185546875,0.60797119140625,stop
64.84,3,0,0,0,0.0500,-0.1000,0.1400,1.9375,0.3125,0.0625,0.42041015625000,-0.08465576171875,0.66821289062500,0.60791015625000,stop
64.85,3,0,0,0,0.0400,-0.0900,0.0900,1.0625,0.4375,0.1250,0.42047119140625,-0.08459472656250,0.66827392578125,0.60784912109375,stop
64.86,3,0,0,0,0.0000,-0.1200,0.0600,0.6250,0.3125,0.2500,0.42047119140625,-0.08459472656250,0.66827392578125,0.60778808593750,stop
64.87,3,0,0,0,-0.0300,-0.1800,0.0800,-0.1875,0.5000,0.0625,0.42053222656250,-0.08459472656250,0.66827392578125,0.60778808593750,stop
64.88,3,0,0,0,-0.0100,-0.2700,0.0200,-0.4375,0.3125,0.1250,0.42053222656250,-0.08465576171875,0.66827392578125,0.60778808593750,stop
64.89,3,0,0,0,-0.0200,-0.2800,0.0000,-0.5625,0.0625,0.0000,0.42053222656250,-0.08471679687500,0.66821289062500,0.60784912109375,stop
64.90,3,0,0,0,-0.0100,-0.3100,-0.0100,-0.5625,-0.0625,-0.0625,0.42059326171875,-0.08477783203125,0.66815185546875,0.60784912109375,stop
64.91,3,0,0,0,-0.0300,-0.2800,0.0000,-0.3750,-0.0625,-0.0625,0.42065429687500,-0.08483886718750,0.66815185546875,0.60784912109375,stop
64.92,3,0,0,0,-0.0300,-0.2300,0.0300,-0.1875,-0.1250,-0.0625,0.42071533203125,-0.08489990234375,0.66815185546875,0.60778808593750,stop
64.93,3,0,0,0,0.0000,-0.2200,0.0500,-0.5000,-0.1875,0.0000,0.42071533203125,-0.08489990234375,0.66809082031250,0.60778808593750,stop
64.94,3,0,0,0,0.0200,-0.2300,0.0200,-0.8125,-0.2500,-0.0625,0.42071533203125,-0.08496093750000,0.66802978515625,0.60784912109375,stop
64.95,3,0,0,0,0.0300,-0.2400,0.0300,-0.6875,-0.7500,-0.0625,0.42083740234375,-0.08496093750000,0.66796875000000,0.60784912109375,stop
64.96,3,0,0,0,0.0000,-0.2200,0.0000,-0.5625,-0.5625,-0.0625,0.42089843750000,-0.08502197265625,0.66790771484375,0.60791015625000,stop
64.97,3,0,0,0,-0.0100,-0.2000,-0.0100,-0.6875,-0.5000,-0.3125,0.42089843750000,-0.08508300781250,0.66784667968750,0.60791015625000,stop
64.98,3,0,0,0,-0.0300,-0.1900,-0.0100,-0.8750,-0.1250,-0.4375,0.42089843750000,-0.08514404296875,0.66778564453125,0.60797119140625,stop
64.99,3,0,0,0,-0.0200,-0.1800,-0.0300,-1.2500,-0.3750,-0.5625,0.42095947265625,-0.08526611328125,0.66772460937500,0.60803222656250,stop
65.00,3,0,0,0,0.0000,-0.1500,-0.0600,-1.3750,-0.5625,-0.6875,0.42102050781250,-0.08532714843750,0.66760253906250,0.60803222656250,stop
65.01,3,0,0,0,0.0000,-0.1300,-0.1200,-1.3125,-0.7500,-0.8750,0.42114257812500,-0.08538818359375,0.66754150390625,0.60809326171875,stop
65.02,3,0,0,0,0.0300,-0.1200,-0.1300,-1.2500,-0.7500,-0.6875,0.42120361328125,-0.08544921875000,0.66741943359375,0.60815429687500,stop
65.03,3,0,0,0,0.0400,-0.1000,-0.1200,-1.1875,-0.3125,-0.6250,0.42126464843750,-0.08557128906250,0.66735839843750,0.60815429687500,stop
65.04,3,0,0,0,0.0400,-0.1600,-0.0900,-0.8125,0.0000,-0.5625,0.42126464843750,-0.08563232421875,0.66729736328125,0.60815429687500,stop
65.05,3,0,0,0,0.0400,-0.1800,-0.1100,-0.8750,0.0000,-0.5625,0.42132568359375,-0.08575439453125,0.66729736328125,0.60815429687500,stop
65.06,3,0,0,0,0.0900,-0.1900,-0.1400,-0.7500,-0.0625,-0.5625,0.42132568359375,-0.08581542968750,0.66723632812500,0.60821533203125,stop
65.07,3,0,0,0,0.1000,-0.2400,-0.1400,-0.6875,-0.5625,-0.2500,0.42138671875000,-0.08581542968750,0.66717529296875,0.60821533203125,stop
65.08,3,0,0,0,0.0800,-0.2400,-0.1600,-0.5625,-0.3125,-0.3750,0.42138671875000,-0.08587646484375,0.66717529296875,0.60821533203125,stop
65.09,3,0,0,0,0.0600,-0.2400,-0.2000,-0.6250,-0.0625,-0.0625,0.42138671875000,-0.08593750000000,0.66717529296875,0.60821533203125,stop
65.10,3,0,0,0,0.0600,-0.2500,-0.1700,0.0000,0.5000,-0.2500,0.42138671875000,-0.08593750000000,0.66717529296875,0.60821533203125,stop
65.11,3,0,0,0,0.0800,-0.2500,-0.1800,0.8125,0.8125,-0.1875,0.42132568359375,-0.08599853515625,0.66729736328125,0.60809326171875,stop
65.12,3,0,0,0,0.1200,-0.2100,-0.1200,1.6250,0.8750,-0.4375,0.42126464843750,-0.08599853515625,0.66741943359375,0.60797119140625,stop
65.13,3,0,0,0,0.1100,-0.2300,-0.0700,2.1250,1.0000,-0.3125,0.42126464843750,-0.08599853515625,0.66760253906250,0.60784912109375,stop
65.14,3,0,0,0,0.1300,-0.2100,0.0100,2.1250,1.3750,-0.3750,0.42120361328125,-0.08599853515625,0.66778564453125,0.60766601562500,stop
65.15,3,0,0,0,0.1100,-0.1300,-0.0100,1.7500,1.3750,-0.5000,0.42114257812500,-0.08599853515625,0.66790771484375,0.60754394531250,stop
65.16,3,0,0,0,0.0900,-0.0900,0.0000,1.3125,1.6250,-0.3125,0.42102050781250,-0.08605957031250,0.66802978515625,0.60748291015625,stop
65.17,3,0,0,0,0.0300,-0.0600,-0.0700,0.8750,1.8125,-0.1875,0.42095947265625,-0.08612060546875,0.66815185546875,0.60742187500000,stop
65.18,3,0,0,0,0.0000,-0.0900,-0.0800,1.0625,1.5000,0.0625,0.42083740234375,-0.08618164062500,0.66827392578125,0.60729980468750,stop
65.19,3,0,0,0,-0.0100,-0.1400,-0.0900,1.0000,1.0000,0.1875,0.42083740234375,-0.08618164062500,0.66839599609375,0.60723876953125,stop
65.20,3,0,0,0,0.0000,-0.1800,-0.1100,0.3750,0.8125,0.0000,0.42077636718750,-0.08624267578125,0.66839599609375,0.60723876953125,stop
65.21,3,0,0,0,0.0100,-0.1900,-0.0800,-0.2500,0.4375,0.0000,0.42077636718750,-0.08630371093750,0.66845703125000,0.60717773437500,stop
65.22,3,0,0,0,0.0200,-0.1800,-0.0700,-0.8125,0.0625,-0.1875,0.42077636718750,-0.08636474609375,0.66839599609375,0.60723876953125,stop
65.23,3,0,0,0,0.0600,-0.1700,-0.1000,-1.2500,0.0625,-0.3750,0.42077636718750,-0.08642578125000,0.66833496093750,0.60729980468750,stop
65.24,3,0,0,0,0.0700,-0.1900,-0.1300,-1.5625,0.0000,-0.2500,0.42077636718750,-0.08648681640625,0.66827392578125,0.60736083984375,stop
65.25,3,0,0,0,0.0900,-0.2000,-0.1400,-1.0625,0.5625,-0.1250,0.42071533203125,-0.08654785156250,0.66821289062500,0.60742187500000,stop
65.26,3,0,0,0,0.1500,-0.1700,-0.1800,-0.3125,0.8750,0.0000,0.42065429687500,-0.08660888671875,0.66827392578125,0.60736083984375,stop
65.27,3,0,0,0,0.1700,-0.1300,-0.1700,0.0625,0.9375,-0.1875,0.42059326171875,-0.08666992187500,0.66833496093750,0.60736083984375,stop
65.28,3,0,0,0,0.1900,-0.1400,-0.1600,0.6875,0.9375,-0.0625,0.42053222656250,-0.08673095703125,0.66845703125000,0.60729980468750,stop
65.29,3,0,0,0,0.1700,-0.1000,-0.1300,1.4375,0.7500,-0.0625,0.42047119140625,-0.08673095703125,0.66857910156250,0.60717773437500,stop
65.30,3,0,0,0,0.1200,-0.1500,-0.0700,1.6250,0.6875,0.0000,0.42047119140625,-0.08666992187500,0.66870117187500,0.60705566406250,stop
65.31,3,0,0,0,0.1000,-0.1800,-0.0900,1.5625,0.9375,0.0000,0.42041015625000,-0.08666992187500,0.66882324218750,0.60693359375000,stop
65.32,3,0,0,0,0.1100,-0.1800,-0.0500,1.5625,1.5000,0.0625,0.42034912109375,-0.08673095703125,0.66900634765625,0.60681152343750,stop
65.33,3,0,0,0,0.0900,-0.1800,-0.1000,1.7500,2.1250,0.2500,0.42022705078125,-0.08679199218750,0.66918945312500,0.60668945312500,stop
65.34,3,0,0,0,0.0900,-0.1900,-0.1100,2.1875,2.1250,0.1250,0.42010498046875,-0.08679199218750,0.66937255859375,0.60656738281250,stop
65.35,3,0,0,0,0.1100,-0.1700,-0.0600,2.8750,2.0625,0.1875,0.41998291015625,-0.08679199218750,0.66961669921875,0.60638427734375,stop
65.36,3,0,0,0,0.0900,-0.1500,-0.0400,3.0625,1.8750,0.2500,0.41992187500000,-0.08679199218750,0.66986083984375,0.60614013671875,stop
65.37,3,0,0,0,0.0800,-0.1300,0.0200,2.7500,1.8125,0.4375,0.41986083984375,-0.08679199218750,0.67004394531250,0.60595703125000,stop
65.38,3,0,0,0,0.0700,-0.1200,0.0000,2.0625,2.2500,0.5000,0.41973876953125,-0.08685302734375,0.67022705078125,0.60583496093750,stop
65.39,3,0,0,0,0.1000,-0.1300,-0.0200,1.1875,2.4375,0.5000,0.41961669921875,-0.08691406250000,0.67041015625000,0.60577392578125,stop
65.40,3,0,0,0,0.1100,-0.1800,-0.0700,0.9375,2.6250,0.5000,0.41943359375000,-0.08703613281250,0.67053222656250,0.60565185546875,stop
65.41,3,0,0,0,0.1200,-0.2000,-0.0800,1.3125,2.6875,0.5625,0.41925048828125,-0.08709716796875,0.67071533203125,0.60559082031250,stop
65.42,3,0,0,0,0.1300,-0.2000,-0.0600,2.0625,2.6250,0.6250,0.41906738281250,-0.08715820312500,0.67095947265625,0.60546875000000,stop
65.43,3,0,0,0,0.1100,-0.2000,0.0000,2.5625,2.6250,0.5625,0.41894531250000,-0.08715820312500,0.67120361328125,0.60528564453125,stop
65.44,3,0,0,0,0.1100,-0.1800,0.0400,2.3125,2.5000,0.5625,0.41876220703125,-0.08715820312500,0.67138671875000,0.60516357421875,stop
65.45,3,0,0,0,0.1300,-0.1600,0.0300,1.9375,2.7500,0.4375,0.41864013671875,-0.08728027343750,0.67163085937500,0.60504150390625,stop
65.46,3,0,0,0,0.1400,-0.1600,-0.0200,1.6875,2.7500,0.5000,0.41845703125000,-0.08734130859375,0.67181396484375,0.60491943359375,stop
65.47,3,0,0,0,0.1400,-0.1400,-0.0200,1.6875,2.6875,0.6250,0.41827392578125,-0.08740234375000,0.67199707031250,0.60479736328125,stop
65.48,3,0,0,0,0.1200,-0.1400,-0.0200,1.8750,2.8750,0.6875,0.41809082031250,-0.08740234375000,0.67224121093750,0.60473632812500,stop
65.49,3,0,0,0,0.1700,-0.1800,-0.0100,2.0625,2.9375,0.6875,0.41790771484375,-0.08746337890625,0.67242431640625,0.60461425781250,stop
65.50,3,0,0,0,0.1700,-0.2000,-0.0100,2.1250,3.1250,0.8125,0.41766357421875,-0.08752441406250,0.67266845703125,0.60449218750000,stop
65.51,3,0,0,0,0.2000,-0.1900,0.0000,2.0625,2.9375,0.8125,0.41748046875000,-0.08752441406250,0.67291259765625,0.60437011718750,stop
65.52,3,0,0,0,0.2000,-0.2400,0.0000,2.2500,2.6875,0.9375,0.41729736328125,-0.08758544921875,0.67309570312500,0.60424804687500,stop
65.53,3,0,0,0,0.1900,-0.2600,0.0400,2.5625,2.6250,0.8750,0.41711425781250,-0.08752441406250,0.67333984375000,0.60412597656250,stop
65.54,3,0,0,0,0.1800,-0.2900,0.0600,2.8750,2.6250,1.1875,0.41693115234375,-0.08752441406250,0.67358398437500,0.60394287109375,stop
65.55,3,0,0,0,0.1900,-0.2800,0.1500,3.5000,2.5625,1.1250,0.41674804687500,-0.08746337890625,0.67388916015625,0.60375976562500,stop
65.56,3,0,0,0,0.1700,-0.2800,0.1900,3.9375,2.3125,1.2500,0.41662597656250,-0.08740234375000,0.67413330078125,0.60357666015625,stop
65.57,3,0,0,0,0.1100,-0.2900,0.2600,3.7500,2.5625,1.4375,0.41650390625000,-0.08728027343750,0.67437744140625,0.60345458984375,stop
65.58,3,0,0,0,0.1000,-0.2800,0.2500,3.4375,2.3750,1.6250,0.41638183593750,-0.08721923828125,0.67456054687500,0.60333251953125,stop
65.59,3,0,0,0,0.0800,-0.2800,0.2700,3.2500,2.0000,1.8750,0.41625976562500,-0.08715820312500,0.67468261718750,0.60327148437500,stop
65.60,3,0,0,0,0.0700,-0.3200,0.2400,3.1250,1.6875,1.7500,0.41619873046875,-0.08703613281250,0.67480468750000,0.60321044921875,stop
65.61,3,0,0,0,0.0700,-0.3000,0.2100,3.0000,1.3750,2.1250,0.41613769531250,-0.08691406250000,0.67492675781250,0.60314941406250,stop
65.62,3,0,0,0,0.1000,-0.3100,0.2300,2.9375,0.9375,2.1875,0.41607666015625,-0.08679199218750,0.67498779296875,0.60308837890625,stop
65.63,3,0,0,0,0.1000,-0.3400,0.2400,3.0625,0.5625,2.3125,0.41607666015625,-0.08660888671875,0.67510986328125,0.60302734375000,stop
65.64,3,0,0,0,0.1200,-0.3900,0.2300,3.4375,0.1250,2.4375,0.41607666015625,-0.08642578125000,0.67517089843750,0.60296630859375,stop
65.65,3,0,0,0,0.1300,-0.4000,0.2000,4.1875,0.0000,2.7500,0.41607666015625,-0.08618164062500,0.67529296875000,0.60284423828125,stop
65.66,3,0,0,0,0.1500,-0.3500,0.1900,4.7500,0.0000,2.9375,0.41607666015625,-0.08587646484375,0.67547607421875,0.60272216796875,stop
65.67,3,0,0,0,0.1500,-0.3000,0.2000,5.1250,0.2500,2.8750,0.41601562500000,-0.08557128906250,0.67565917968750,0.60260009765625,stop
65.68,3,0,0,0,0.2000,-0.2100,0.2600,5.7500,0.3125,2.8750,0.41601562500000,-0.08514404296875,0.67584228515625,0.60241699218750,stop
65.69,3,0,0,0,0.2200,-0.2000,0.2400,4.6250,0.0000,2.7500,0.41595458984375,-0.08483886718750,0.67602539062500,0.60229492187500,stop
65.70,3,0,0,0,0.2700,-0.2000,0.2000,2.4375,-0.1875,2.7500,0.41583251953125,-0.08459472656250,0.67608642578125,0.60235595703125,stop
65.71,3,0,0,0,0.3000,-0.2100,0.1400,0.0000,-0.3125,2.6250,0.41577148437500,-0.08441162109375,0.67608642578125,0.60247802734375,stop
65.72,3,0,0,0,0.3700,-0.3500,0.0600,-1.1875,-0.9375,2.3125,0.41571044921875,-0.08422851562500,0.67596435546875,0.60266113281250,stop
65.73,3,0,0,0,0.3200,-0.3600,0.0900,-1.4375,-1.1250,1.8125,0.41564941406250,-0.08410644531250,0.67578125000000,0.60284423828125,stop
65.74,3,0,0,0,0.2500,-0.2900,0.2900,0.5000,-0.9375,1.3125,0.41571044921875,-0.08398437500000,0.67572021484375,0.60296630859375,stop
65.75,3,0,0,0,-0.1500,0.2700,0.4700,3.8125,-1.1250,0.8125,0.41577148437500,-0.08367919921875,0.67572021484375,0.60290527343750,stop
65.76,3,0,0,0,-0.1500,0.2700,0.4700,3.8125,-1.1250,0.8125,0.41577148437500,-0.08367919921875,0.67572021484375,0.60290527343750,stop
65.76,3,0,0,0,-0.5500,0.6100,0.6300,6.2500,-3.4375,1.0000,0.41601562500000,-0.08325195312500,0.67596435546875,0.60260009765625,stop
65.77,3,0,0,0,-1.0400,0.9000,0.6100,4.8125,-1.0625,1.5000,0.41601562500000,-0.08288574218750,0.67614746093750,0.60235595703125,stop
65.78,3,0,0,0,-1.4900,1.3400,0.6100,0.9375,0.5625,2.0000,0.41589355468750,-0.08276367187500,0.67626953125000,0.60235595703125,stop
65.79,3,0,0,0,-2.2100,2.0800,0.6100,-1.7500,2.1250,1.3125,0.41571044921875,-0.08288574218750,0.67626953125000,0.60253906250000,stop
65.80,3,0,0,0,-2.5400,2.1500,0.4800,-2.3125,2.6875,0.9375,0.41546630859375,-0.08306884765625,0.67620849609375,0.60266113281250,stop
65.81,3,0,0,0,-2.7300,2.0400,0.1400,-4.5625,3.0625,0.6875,0.41522216796875,-0.08337402343750,0.67608642578125,0.60296630859375,stop
65.82,3,0,0,0,-2.7200,1.9400,-0.0700,-8.1875,3.0000,0.0000,0.41497802734375,-0.08380126953125,0.67578125000000,0.60339355468750,stop
65.83,3,0,0,0,-2.5400,1.7700,-0.3200,-11.8125,2.1875,-1.2500,0.41485595703125,-0.08441162109375,0.67523193359375,0.60406494140625,stop
65.84,3,0,0,0,-1.8200,1.7500,-0.5100,-15.8750,3.3750,-1.5625,0.41461181640625,-0.08526611328125,0.67449951171875,0.60491943359375,stop
65.85,3,0,0,0,-1.8000,1.8400,-0.6600,-19.5625,4.3750,-3.0000,0.41436767578125,-0.08642578125000,0.67358398437500,0.60589599609375,stop
65.86,3,0,0,0,-1.5300,1.7700,-0.6200,-21.5625,0.1250,-5.3125,0.41448974609375,-0.08752441406250,0.67242431640625,0.60699462890625,stop
65.87,3,0,0,0,-0.4600,0.9600,-0.5800,-24.0625,-0.8750,-6.0000,0.41467285156250,-0.08868408203125,0.67102050781250,0.60821533203125,stop
65.88,3,0,0,0,0.1300,0.3700,-0.6600,-24.6250,-2.2500,-5.6875,0.41491699218750,-0.08978271484375,0.66961669921875,0.60943603515625,stop
65.89,3,0,0,0,0.8100,-0.1800,-0.6400,-24.1875,-3.0000,-4.3125,0.41516113281250,-0.09075927734375,0.66815185546875,0.61071777343750,stop
65.90,3,0,0,0,1.4500,-0.8600,-0.7800,-23.2500,1.0625,-3.1250,0.41503906250000,-0.09185791015625,0.66693115234375,0.61193847656250,stop
65.91,3,0,0,0,2.3000,-1.7300,-1.2200,-22.5625,6.7500,-1.8750,0.41461181640625,-0.09313964843750,0.66595458984375,0.61315917968750,stop
65.92,3,0,0,0,2.7400,-2.3100,-1.3400,-18.7500,11.0000,-0.6250,0.41381835937500,-0.09448242187500,0.66534423828125,0.61413574218750,stop
65.93,3,0,0,0,3.0200,-2.6900,-1.4200,-14.3750,11.9375,0.0000,0.41302490234375,-0.09564208984375,0.66497802734375,0.61486816406250,stop
65.94,3,0,0,0,3.3000,-3.3100,-1.4000,-9.8125,10.5000,0.0000,0.41235351562500,-0.09655761718750,0.66485595703125,0.61535644531250,stop
65.95,3,0,0,0,3.4100,-3.5600,-1.4100,-3.7500,9.3750,0.2500,0.41174316406250,-0.09716796875000,0.66497802734375,0.61547851562500,stop
65.96,3,0,0,0,3.4500,-3.7200,-1.3400,1.8750,8.7500,0.8750,0.41119384765625,-0.09753417968750,0.66540527343750,0.61529541015625,stop
65.97,3,0,0,0,3.3300,-3.8800,-1.2600,5.8125,9.8750,1.0625,0.41064453125000,-0.09777832031250,0.66613769531250,0.61492919921875,stop
65.98,3,0,0,0,3.0700,-3.7000,-1.0000,9.3750,12.6250,0.5625,0.40991210937500,-0.09808349609375,0.66705322265625,0.61425781250000,stop
65.99,3,0,0,0,3.1100,-3.7200,-0.9100,10.0000,15.9375,0.0625,0.40905761718750,-0.09863281250000,0.66821289062500,0.61358642578125,stop
66.00,3,0,0,0,3.0600,-3.4400,-0.8500,13.5000,16.1250,0.5625,0.40820312500000,-0.09893798828125,0.66949462890625,0.61267089843750,stop
66.01,3,0,0,0,2.9800,-3.4400,-0.5600,17.4375,15.3125,0.0000,0.40747070312500,-0.09918212890625,0.67095947265625,0.61151123046875,stop
66.02,3,0,0,0,2.8600,-3.1600,-0.3200,19.9375,13.8750,0.1250,0.40686035156250,-0.09918212890625,0.67254638671875,0.61016845703125,stop
66.03,3,0,0,0,2.8600,-3.1600,-0.3200,19.9375,13.8750,0.1250,0.40686035156250,-0.09918212890625,0.67254638671875,0.61016845703125,stop
66.03,3,0,0,0,2.5100,-2.8500,-0.0700,23.5625,9.5625,-0.4375,0.40649414062500,-0.09887695312500,0.67413330078125,0.60870361328125,stop
66.04,3,0,0,0,1.9500,-2.3700,0.1200,24.6875,3.9375,-2.6250,0.40655517578125,-0.09832763671875,0.67559814453125,0.60711669921875,stop
66.05,3,0,0,0,1.0500,-1.5900,0.2400,22.3750,-5.3125,-6.7500,0.40747070312500,-0.09765625000000,0.67651367187500,0.60559082031250,stop
66.06,3,0,0,0,-2.1600,1.5200,0.6600,17.9375,-16.8125,-13.0000,0.40930175781250,-0.09692382812500,0.67675781250000,0.60424804687500,stop
66.07,3,0,0,0,-4.9400,3.7200,0.4500,7.4375,-14.6250,-18.7500,0.41119384765625,-0.09698486328125,0.67645263671875,0.60321044921875,stop
66.08,3,0,0,0,-7.7300,6.2500,0.6200,2.6250,-26.8750,-21.8750,0.41394042968750,-0.09680175781250,0.67547607421875,0.60247802734375,stop
66.09,3,0,0,0,-10.0700,11.7400,1.5000,9.7500,-48.8750,-19.8125,0.41796875000000,-0.09503173828125,0.67407226562500,0.60162353515625,stop
66.10,3,0,0,0,-9.0100,12.2500,1.2600,11.3125,-30.6250,-11.0000,0.42041015625000,-0.09368896484375,0.67346191406250,0.60076904296875,stop
66.11,3,0,0,0,-5.8000,9.4600,-0.0700,7.7500,28.8125,2.6875,0.41864013671875,-0.09472656250000,0.67492675781250,0.60021972656250,stop
66.12,3,0,0,0,-2.6500,4.9700,-0.1200,14.4375,37.5625,8.3750,0.41613769531250,-0.09564208984375,0.67712402343750,0.59930419921875,stop
66.13,3,0,0,0,-0.3900,0.7500,1.0000,16.8750,12.7500,11.2500,0.41491699218750,-0.09503173828125,0.67858886718750,0.59863281250000,stop
66.14,3,0,0,0,0.2800,-0.0400,0.9300,18.1875,7.9375,12.7500,0.41394042968750,-0.09405517578125,0.67993164062500,0.59796142578125,stop
66.15,3,0,0,0,0.6300,-0.4700,0.6600,17.2500,6.3750,13.1875,0.41302490234375,-0.09295654296875,0.68115234375000,0.59735107421875,stop
66.16,3,0,0,0,1.2100,-0.9800,0.5100,9.0625,0.8750,12.1250,0.41235351562500,-0.09197998046875,0.68176269531250,0.59722900390625,stop
66.17,3,0,0,0,2.5600,-2.9900,0.3300,1.6250,-10.6875,9.3750,0.41253662109375,-0.09082031250000,0.68151855468750,0.59753417968750,stop
66.18,3,0,0,0,3.3300,-4.2100,0.2400,-5.6250,-17.8750,7.6875,0.41314697265625,-0.08959960937500,0.68066406250000,0.59832763671875,stop
66.19,3,0,0,0,4.0500,-5.1900,0.1200,-16.9375,-13.8750,6.0000,0.41351318359375,-0.08917236328125,0.67932128906250,0.59967041015625,stop
66.20,3,0,0,0,4.5100,-5.8200,-0.2200,-28.9375,-1.1250,2.6875,0.41320800781250,-0.08996582031250,0.67779541015625,0.60144042968750,stop
66.21,3,0,0,0,4.7700,-5.9600,-0.9500,-36.2500,6.5625,-2.8750,0.41271972656250,-0.09179687500000,0.67608642578125,0.60345458984375,stop
66.22,3,0,0,0,4.6800,-5.7200,-0.9400,-36.5000,6.2500,-7.3125,0.41241455078125,-0.09387207031250,0.67431640625000,0.60528564453125,stop
66.23,3,0,0,0,4.5200,-4.7700,-1.0800,-31.3125,8.3750,-7.8750,0.41210937500000,-0.09588623046875,0.67291259765625,0.60675048828125,stop
66.24,3,0,0,0,4.1400,-4.3600,-1.3900,-19.8125,11.9375,-8.0000,0.41162109375000,-0.09771728515625,0.67224121093750,0.60754394531250,stop
66.25,3,0,0,0,2.2600,-2.1600,-1.2000,-7.9375,5.8750,-7.2500,0.41162109375000,-0.09875488281250,0.67193603515625,0.60772705078125,stop
66.26,3,0,0,0,1.0100,-1.2900,-1.0400,-1.6250,1.5000,-9.2500,0.41198730468750,-0.09942626953125,0.67187500000000,0.60742187500000,moving
66.27,3,0,0,0,-0.6700,-0.0900,-0.4700,4.8125,-5.1250,-12.5625,0.41302490234375,-0.09973144531250,0.67181396484375,0.60675048828125,moving
66.28,3,0,0,0,-5.3200,4.4100,0.2100,6.5000,-4.2500,-13.6875,0.41406250000000,-0.10009765625000,0.67187500000000,0.60589599609375,moving
66.29,3,0,0,0,-7.8400,7.3000,0.3300,5.3125,-1.2500,-14.1875,0.41491699218750,-0.10064697265625,0.67199707031250,0.60510253906250,moving
66.30,3,0,0,0,-8.9100,9.9600,0.4700,3.6875,-1.5625,-10.5625,0.41558837890625,-0.10107421875000,0.67205810546875,0.60449218750000,moving
66.31,3,0,0,0,-8.9100,9.9600,0.4700,3.6875,-1.5625,-10.5625,0.41558837890625,-0.10107421875000,0.67205810546875,0.60449218750000,moving
66.31,3,0,0,0,-7.5600,10.8200,-0.0600,8.1875,11.7500,-3.4375,0.41516113281250,-0.10156250000000,0.67291259765625,0.60375976562500,moving
66.32,3,0,0,0,-2.6700,4.4200,0.6500,25.3125,10.4375,-2.7500,0.41491699218750,-0.10137939453125,0.67456054687500,0.60211181640625,moving
66.34,3,0,0,0,-1.1300,2.0700,1.5900,32.1250,-17.3750,0.7500,0.41619873046875,-0.09924316406250,0.67565917968750,0.60040283203125,moving
66.34,3,0,0,0,-0.0400,0.6400,1.3300,20.1875,-10.2500,4.0000,0.41674804687500,-0.09771728515625,0.67639160156250,0.59942626953125,moving
66.35,3,0,0,0,0.2500,0.0900,0.8200,11.3125,0.0000,4.4375,0.41662597656250,-0.09704589843750,0.67700195312500,0.59893798828125,moving
66.36,3,0,0,0,0.6000,-0.9300,1.1000,-0.0625,-2.1250,4.1250,0.41650390625000,-0.09667968750000,0.67694091796875,0.59906005859375,moving
66.37,3,0,0,0,0.9400,-1.7000,1.0500,-13.3750,-5.3750,3.0625,0.41656494140625,-0.09674072265625,0.67608642578125,0.60003662109375,moving
66.38,3,0,0,0,1.4900,-2.4000,0.5100,-22.9375,-5.6875,2.1875,0.41656494140625,-0.09710693359375,0.67468261718750,0.60150146484375,moving
66.39,3,0,0,0,2.2700,-3.2100,0.0000,-30.9375,-9.5000,0.5625,0.41687011718750,-0.09771728515625,0.67272949218750,0.60345458984375,moving
66.40,3,0,0,0,3.6200,-4.9600,-0.6600,-37.3750,-12.1875,-1.8125,0.41735839843750,-0.09851074218750,0.67028808593750,0.60565185546875,moving
66.42,3,0,0,0,4.1800,-5.5200,-0.7900,-39.9375,-13.0000,-5.6875,0.41802978515625,-0.09967041015625,0.66766357421875,0.60791015625000,moving
66.42,3,0,0,0,4.4700,-5.3500,-0.9800,-39.5625,-8.5000,-7.8750,0.41864013671875,-0.10107421875000,0.66516113281250,0.60998535156250,moving
66.43,3,0,0,0,4.8000,-4.9500,-1.3800,-34.1250,-3.7500,-8.3750,0.41900634765625,-0.10260009765625,0.66314697265625,0.61169433593750,moving
66.44,3,0,0,0,5.1700,-4.8500,-1.6700,-23.8750,-6.1875,-8.8125,0.41961669921875,-0.10369873046875,0.66156005859375,0.61279296875000,moving
66.45,3,0,0,0,5.3000,-4.7600,-1.5500,-16.2500,-10.6875,-9.2500,0.42059326171875,-0.10424804687500,0.66021728515625,0.61346435546875,moving
66.46,3,0,0,0,5.2100,-4.7900,-1.4700,-14.0625,-9.2500,-10.0000,0.42150878906250,-0.10485839843750,0.65905761718750,0.61401367187500,moving
66.47,3,0,0,0,3.7700,-3.8700,-1.3500,-13.3125,-5.3750,-9.6875,0.42224121093750,-0.10559082031250,0.65802001953125,0.61450195312500,moving
66.49,3,0,0,0,2.2900,-2.4800,-1.4400,-13.1875,0.5625,-8.3750,0.42248535156250,-0.10662841796875,0.65728759765625,0.61492919921875,moving
66.50,3,0,0,0,0.1400,-0.6900,-1.5800,-12.1875,7.0625,-7.3125,0.42236328125000,-0.10784912109375,0.65679931640625,0.61529541015625,moving
66.50,3,0,0,0,-2.8200,1.8300,-0.9800,-2.1250,9.1250,-4.8750,0.42211914062500,-0.10870361328125,0.65698242187500,0.61511230468750,moving
66.51,3,0,0,0,-11.1500,10.5100,-0.6700,8.0625,14.0625,0.0000,0.42138671875000,-0.10913085937500,0.65795898437500,0.61450195312500,moving
66.52,3,0,0,0,-13.3000,14.4900,-0.6900,20.4375,14.0625,5.5000,0.42047119140625,-0.10882568359375,0.65960693359375,0.61340332031250,moving
66.53,3,0,0,0,-12.6800,16.2500,-1.1300,40.5000,25.0625,8.5625,0.41894531250000,-0.10821533203125,0.66278076171875,0.61114501953125,moving
66.54,3,0,0,0,-8.4100,11.8200,-0.7900,81.0625,8.8125,6.8750,0.41876220703125,-0.10528564453125,0.66748046875000,0.60662841796875,moving
66.55,3,0,0,0,-2.4100,2.0100,3.7100,103.9375,-32.6875,8.0625,0.42120361328125,-0.09930419921875,0.67187500000000,0.60113525390625,moving
66.57,3,0,0,0,-0.6800,0.7700,2.6900,67.6250,-13.9375,6.6250,0.42224121093750,-0.09570312500000,0.67492675781250,0.59747314453125,moving
66.57,3,0,0,0,-0.6800,0.7700,2.6900,67.6250,-13.9375,6.6250,0.42224121093750,-0.09570312500000,0.67492675781250,0.59747314453125,moving
66.58,3,0,0,0,-0.0700,0.7100,1.6100,12.1875,8.8750,3.4375,0.42163085937500,-0.09552001953125,0.67596435546875,0.59680175781250,moving
66.59,3,0,0,0,0.1600,0.7600,1.7200,-25.6250,2.6250,-0.5000,0.42126464843750,-0.09661865234375,0.67474365234375,0.59832763671875,moving
66.59,3,0,0,0,1.4900,-0.8000,0.7900,-46.7500,-4.1250,-1.0625,0.42114257812500,-0.09814453125000,0.67211914062500,0.60107421875000,moving
66.60,3,0,0,0,2.4400,-2.2900,-0.3500,-61.4375,3.3125,0.0625,0.42041015625000,-0.10058593750000,0.66900634765625,0.60461425781250,moving
66.61,3,0,0,0,3.5400,-3.7800,-1.1000,-63.4375,1.8125,-0.6875,0.41979980468750,-0.10302734375000,0.66571044921875,0.60827636718750,moving
66.62,3,0,0,0,4.7500,-5.5900,-1.6500,-57.5000,-2.0000,-4.0625,0.41961669921875,-0.10528564453125,0.66253662109375,0.61145019531250,moving
66.64,3,0,0,0,5.2400,-6.1600,-1.6400,-50.1250,-0.5000,-6.3125,0.41943359375000,-0.10748291015625,0.65979003906250,0.61413574218750,moving
66.65,3,0,0,0,5.6800,-6.5500,-1.6100,-37.6250,4.8125,-5.7500,0.41912841796875,-0.10943603515625,0.65789794921875,0.61602783203125,moving
66.66,3,0,0,0,5.9700,-6.7600,-1.9300,-26.0625,11.3125,-4.5000,0.41845703125000,-0.11126708984375,0.65692138671875,0.61724853515625,moving
66.67,3,0,0,0,6.1700,-6.2300,-1.8800,-15.6875,9.1250,-2.6250,0.41790771484375,-0.11248779296875,0.65637207031250,0.61791992187500,moving
66.67,3,0,0,0,5.8800,-5.8500,-1.6000,-3.8750,2.8750,-1.8125,0.41784667968750,-0.11291503906250,0.65625000000000,0.61810302734375,moving
66.68,3,0,0,0,5.7700,-5.7300,-1.2900,3.8125,1.8750,-0.8750,0.41778564453125,-0.11291503906250,0.65655517578125,0.61779785156250,moving
66.69,3,0,0,0,5.8200,-6.0200,-0.9600,11.8750,-0.3750,-1.0000,0.41796875000000,-0.11254882812500,0.65716552734375,0.61706542968750,moving
66.70,3,0,0,0,4.5800,-4.6800,-0.2800,13.5000,-0.7500,-0.4375,0.41815185546875,-0.11199951171875,0.65789794921875,0.61627197265625,moving
66.71,3,0,0,0,3.6500,-3.7500,-0.5000,10.6875,-0.1875,-0.8750,0.41827392578125,-0.11163330078125,0.65844726562500,0.61566162109375,moving
66.73,3,0,0,0,2.1700,-2.4200,-0.5200,6.8125,-0.4375,-1.3750,0.41839599609375,-0.11151123046875,0.65881347656250,0.61517333984375,moving
66.74,3,0,0,0,-0.1300,-0.4000,-0.3700,4.1875,0.4375,-0.1875,0.41845703125000,-0.11132812500000,0.65905761718750,0.61492919921875,moving
66.75,3,0,0,0,-8.9300,7.0300,0.1700,7.1875,-2.8125,4.1250,0.41845703125000,-0.11065673828125,0.65936279296875,0.61468505859375,moving
66.75,3,0,0,0,-15.2100,12.5100,0.6800,11.3125,-19.3125,6.0000,0.41937255859375,-0.10888671875000,0.65936279296875,0.61444091796875,moving
66.76,3,0,0,0,-18.1900,17.4600,1.5800,16.7500,-38.2500,2.1250,0.42163085937500,-0.10607910156250,0.65887451171875,0.61395263671875,moving
66.77,3,0,0,0,-16.0200,18.2900,1.8100,36.9375,-17.0625,4.6250,0.42266845703125,-0.10357666015625,0.66027832031250,0.61212158203125,moving
66.78,3,0,0,0,-6.4300,6.5900,1.3100,74.2500,3.5000,10.6875,0.42254638671875,-0.10040283203125,0.66442871093750,0.60821533203125,moving
66.80,3,0,0,0,-2.5600,2.3100,2.6100,80.1875,-10.6250,14.2500,0.42309570312500,-0.09600830078125,0.66839599609375,0.60412597656250,moving
66.81,3,0,0,0,-0.6900,0.5900,2.5600,42.9375,5.1250,11.4375,0.42254638671875,-0.09405517578125,0.67095947265625,0.60198974609375,moving
66.82,3,0,0,0,0.0500,1.6600,1.5200,-4.2500,7.5625,6.0625,0.42175292968750,-0.09423828125000,0.67108154296875,0.60241699218750,moving
66.83,3,0,0,0,0.6900,1.0900,1.1400,-30.6875,-8.9375,0.0000,0.42199707031250,-0.09490966796875,0.66912841796875,0.60424804687500,moving
66.83,3,0,0,0,0.6900,1.0900,1.1400,-30.6875,-8.9375,0.0000,0.42199707031250,-0.09490966796875,0.66912841796875,0.60424804687500,moving
66.84,3,0,0,0,1.7900,-0.3400,0.5400,-53.5000,-16.6875,-2.3750,0.42266845703125,-0.09613037109375,0.66564941406250,0.60742187500000,moving
66.84,3,0,0,0,2.8700,-2.0500,-0.3800,-65.8750,-6.0000,-2.9375,0.42260742187500,-0.09844970703125,0.66192626953125,0.61120605468750,moving
66.85,3,0,0,0,5.3000,-4.9100,-1.8500,-66.6875,0.9375,-4.5000,0.42224121093750,-0.10119628906250,0.65838623046875,0.61486816406250,moving
66.86,3,0,0,0,5.4400,-6.1100,-2.2800,-68.3125,-0.2500,-6.3125,0.42193603515625,-0.10406494140625,0.65460205078125,0.61853027343750,moving
66.88,3,0,0,0,5.9900,-6.4200,-2.1900,-60.0625,0.3125,-9.0625,0.42187500000000,-0.10681152343750,0.65130615234375,0.62164306640625,moving
66.89,3,0,0,0,6.5700,-7.4800,-2.2700,-51.1875,8.7500,-10.8125,0.42150878906250,-0.10980224609375,0.64874267578125,0.62402343750000,moving
